blockNum,rt,response,subj_idx,conflict,ics,starting_trial
1,1.1809,1,P8,0,0,1
1,1.1356,1,P8,1,0,0
1,0.73244,1,P8,1,0,0
1,0.62792,1,P8,0,0,0
1,0.68678,1,P8,1,0,0
1,0.74812,1,P8,1,0,0
1,1.101,1,P8,0,0,0
1,0.72376,1,P8,1,0,0
1,0.81301,1,P8,1,0,0
1,0.8501,0,P8,1,0,0
1,1.6567,1,P8,0,0,0
1,1.0814,1,P8,0,0,0
1,0.83454,1,P8,0,0,0
1,0.92754,1,P8,1,0,0
1,1.6606,0,P8,1,0,0
1,0.78557,1,P8,0,0,0
1,0.72436,1,P8,1,0,0
1,1.0514,1,P8,1,0,0
2,0.9043,1,P8,0,0,1
2,0.73135,1,P8,1,0,0
2,1.0001,1,P8,1,0,0
2,0.95136,1,P8,0,0,0
2,1.1066,1,P8,1,0,0
2,0.90383,1,P8,1,0,0
2,1.1046,1,P8,0,0,0
2,0.79134,1,P8,1,0,0
2,0.81673,1,P8,1,0,0
2,1.326,1,P8,1,0,0
2,1.1964,1,P8,0,0,0
2,0.83722,1,P8,0,0,0
2,0.87035,1,P8,0,0,0
2,1.1792,1,P8,1,0,0
2,0.71724,1,P8,0,0,0
2,0.93594,1,P8,1,0,0
2,0.83913,1,P8,1,0,0
2,1.3519,1,P8,0,0,0
2,1.6531,1,P8,0,0,0
2,0.73801,1,P8,1,0,0
2,0.88612,1,P8,1,0,0
2,0.80728,1,P8,0,0,0
2,1.166,1,P8,1,0,0
2,0.86735,1,P8,1,0,0
2,0.82148,1,P8,0,0,0
2,1.005,1,P8,0,0,0
2,1.1722,1,P8,1,0,0
2,0.97691,1,P8,1,0,0
2,0.97813,1,P8,0,0,0
2,1.1994,1,P8,1,0,0
2,1.7427,1,P8,0,0,0
2,1.0313,1,P8,1,0,0
2,0.72827,1,P8,0,0,0
2,1.255,0,P8,0,0,0
2,1.116,1,P8,0,0,0
2,1.5972,1,P8,0,0,0
2,1.3899,1,P8,0,0,0
2,1.6169,1,P8,1,0,0
2,1.442,1,P8,1,0,0
2,0.6633,0,P8,1,0,0
2,1.4963,1,P8,0,0,0
2,0.76706,1,P8,0,0,0
2,1.1423,1,P8,1,0,0
2,1.4815,1,P8,1,0,0
2,1.1987,1,P8,0,0,0
2,1.02,1,P8,0,0,0
2,0.62745,1,P8,0,0,0
2,1.3226,1,P8,1,0,0
2,0.73561,1,P8,0,0,0
2,0.99121,1,P8,0,0,0
2,1.2541,1,P8,1,0,0
2,1.3693,1,P8,1,0,0
2,1.2727,1,P8,0,0,0
2,1.6198,1,P8,1,0,0
2,1.2768,1,P8,0,0,0
2,1.2342,1,P8,0,0,0
2,0.54319,1,P8,0,0,0
2,1.0338,1,P8,1,0,0
2,0.70483,1,P8,1,0,0
3,1.2459,1,P8,0,0,1
3,0.67279,1,P8,0,0,0
3,0.77982,1,P8,0,0,0
3,0.72671,1,P8,1,0,0
3,0.72574,1,P8,1,0,0
3,0.66234,1,P8,0,0,0
3,0.77733,1,P8,1,0,0
3,0.90636,1,P8,0,0,0
3,0.90116,1,P8,0,0,0
3,0.91659,1,P8,0,0,0
3,1.4151,1,P8,1,0,0
3,1.2939,0,P8,1,0,0
3,0.72372,1,P8,0,0,0
3,1.2825,1,P8,0,0,0
3,1.4672,1,P8,1,0,0
3,0.87276,1,P8,1,0,0
3,1.1697,1,P8,0,0,0
3,0.90865,1,P8,1,0,0
3,1.3974,1,P8,1,0,0
3,1.5223,1,P8,1,0,0
3,1.3296,1,P8,0,0,0
3,1.724,1,P8,1,0,0
3,0.89207,1,P8,0,0,0
3,1.2653,1,P8,1,0,0
3,1.0927,0,P8,1,0,0
3,1.0986,1,P8,0,0,0
3,1.0676,1,P8,0,0,0
3,1.6539,1,P8,1,0,0
3,1.7051,0,P8,1,0,0
3,1.2148,1,P8,1,0,0
3,1.0577,1,P8,0,0,0
3,0.98332,1,P8,0,0,0
3,1.1769,1,P8,0,0,0
3,1.2589,1,P8,0,0,0
3,1.5041,1,P8,1,0,0
3,1.3409,1,P8,0,0,0
3,1.6537,1,P8,0,0,0
3,0.8807,1,P8,0,0,0
3,1.5277,0,P8,1,0,0
3,1.0162,0,P8,1,0,0
3,1.1065,1,P8,0,0,0
3,1.2512,1,P8,1,0,0
4,0.99905,1,P8,0,0,1
4,1.1301,1,P8,1,0,0
4,0.57927,1,P8,0,0,0
4,1.1637,1,P8,1,0,0
4,1.3609,0,P8,1,0,0
4,0.86561,1,P8,0,0,0
4,1.2489,1,P8,0,0,0
4,1.0678,1,P8,0,0,0
4,1.4671,1,P8,1,0,0
4,0.84584,1,P8,0,0,0
4,1.0931,1,P8,1,0,0
4,1.2037,1,P8,1,0,0
4,0.95462,1,P8,0,0,0
4,0.94889,1,P8,0,0,0
4,0.98171,1,P8,1,0,0
4,0.70989,1,P8,0,0,0
4,1.369,1,P8,1,0,0
4,1.4916,1,P8,1,0,0
4,1.1509,1,P8,0,0,0
4,0.89376,1,P8,1,0,0
4,1.3883,1,P8,1,0,0
4,0.83746,1,P8,1,0,0
4,1.7458,1,P8,1,0,0
4,1.2151,1,P8,1,0,0
4,0.6491,1,P8,0,0,0
4,1.1494,1,P8,1,0,0
4,1.0104,1,P8,0,0,0
4,0.65344,1,P8,0,0,0
4,0.75024,0,P8,1,0,0
4,0.79089,0,P8,1,0,0
4,1.7102,1,P8,0,0,0
4,0.80521,1,P8,0,0,0
4,0.94656,1,P8,0,0,0
4,1.1811,0,P8,1,0,0
4,1.3253,1,P8,1,0,0
4,1.2246,1,P8,0,0,0
4,0.81943,1,P8,0,0,0
4,0.90243,1,P8,0,0,0
4,1.4514,0,P8,1,0,0
1,1.1035,1,P8,0,0,1
1,0.97835,1,P8,1,0,0
1,1.3171,1,P8,1,0,0
1,1.3705,1,P8,0,0,0
1,0.79768,1,P8,0,0,0
1,0.76482,1,P8,1,0,0
1,0.75626,1,P8,1,0,0
1,0.66296,1,P8,1,0,0
1,0.79598,1,P8,0,0,0
1,1.0652,1,P8,1,0,0
1,1.0702,1,P8,1,0,0
1,0.87341,1,P8,0,0,0
1,0.68048,1,P8,0,0,0
1,0.57939,1,P8,0,0,0
1,0.94467,1,P8,1,0,0
1,1.332,1,P8,0,0,0
1,0.47875,1,P8,0,0,0
1,1.2637,1,P8,1,0,0
1,1.0383,1,P8,1,0,0
1,1.2975,0,P8,1,0,0
1,0.85834,1,P8,0,0,0
1,1.1772,1,P8,0,0,0
1,1.0021,1,P8,1,0,0
1,0.74124,1,P8,0,0,0
1,0.80454,1,P8,0,0,0
1,1.4411,1,P8,0,0,0
1,1.1422,1,P8,1,0,0
1,1.0127,1,P8,1,0,0
1,0.7814,1,P8,0,0,0
1,1.164,1,P8,0,0,0
1,1.6676,1,P8,1,0,0
1,1.2539,1,P8,1,0,0
1,1.2331,1,P8,0,0,0
1,1.6725,1,P8,1,0,0
1,1.4077,1,P8,1,0,0
1,0.91066,1,P8,0,0,0
1,0.78183,1,P8,0,0,0
1,1.0223,1,P8,1,0,0
1,0.92379,1,P8,0,0,0
1,0.66627,1,P8,0,0,0
1,1.0294,1,P8,0,0,0
1,1.4061,1,P8,1,0,0
1,1.0608,1,P8,0,0,0
1,0.89767,1,P8,0,0,0
1,1.3464,1,P8,1,0,0
1,0.79228,1,P8,0,0,0
1,0.95737,1,P8,0,0,0
1,1.5224,1,P8,1,0,0
1,1.0176,1,P8,0,0,0
2,0.96912,1,P8,0,0,1
2,0.84814,1,P8,1,0,0
2,1.1332,1,P8,1,0,0
2,0.89363,1,P8,1,0,0
2,1.069,1,P8,0,0,0
2,0.79438,1,P8,1,0,0
2,0.52766,1,P8,0,0,0
2,1.0225,1,P8,0,0,0
2,0.74955,1,P8,0,0,0
2,1.4488,1,P8,1,0,0
2,0.89746,1,P8,1,0,0
2,1.0443,1,P8,1,0,0
2,0.73291,1,P8,0,0,0
2,0.9141,1,P8,0,0,0
2,1.0529,1,P8,1,0,0
2,1.1164,1,P8,0,0,0
2,1.0438,1,P8,0,0,0
2,1.2506,1,P8,1,0,0
2,1.2259,1,P8,1,0,0
2,0.99269,1,P8,1,0,0
2,0.57516,1,P8,0,0,0
2,1.666,1,P8,1,0,0
2,1.072,1,P8,1,0,0
2,1.2468,1,P8,0,0,0
2,1.21,1,P8,0,0,0
2,1.2568,1,P8,0,0,0
2,1.4916,1,P8,1,0,0
2,1.5986,1,P8,1,0,0
2,1.5718,1,P8,1,0,0
2,1.4424,1,P8,0,0,0
2,1.3977,1,P8,1,0,0
2,1.2225,1,P8,1,0,0
2,1.5696,1,P8,1,0,0
2,1.5762,1,P8,0,0,0
2,1.1676,1,P8,1,0,0
2,1.309,1,P8,0,0,0
2,1.2459,1,P8,0,0,0
2,1.2772,1,P8,0,0,0
2,1.4186,1,P8,1,0,0
2,1.3274,1,P8,1,0,0
2,1.264,1,P8,0,0,0
2,1.4568,1,P8,0,0,0
2,1.1678,1,P8,0,0,0
2,1.6142,1,P8,1,0,0
2,1.4073,1,P8,0,0,0
2,1.3986,1,P8,0,0,0
2,1.5815,1,P8,1,0,0
2,1.3153,1,P8,0,0,0
2,1.4741,1,P8,0,0,0
2,1.3072,1,P8,0,0,0
2,1.0924,1,P8,1,0,0
2,1.065,1,P8,0,0,0
2,1.2981,1,P8,1,0,0
2,1.5205,1,P8,1,0,0
2,1.4494,1,P8,0,0,0
1,1.0583,1,P9,1,0,1
1,0.9591,1,P9,1,0,0
1,0.93454,1,P9,0,0,0
1,1.1776,1,P9,1,0,0
1,0.88689,1,P9,1,0,0
1,0.9995,1,P9,0,0,0
1,0.93448,1,P9,1,0,0
1,1.2876,1,P9,1,0,0
1,1.0528,1,P9,1,0,0
1,0.6994,1,P9,0,0,0
1,0.71618,1,P9,0,0,0
1,0.75719,1,P9,0,0,0
1,0.93029,1,P9,1,0,0
1,1.1434,1,P9,1,0,0
1,0.77217,1,P9,0,0,0
1,0.83097,1,P9,1,0,0
1,0.8461,1,P9,1,0,0
1,0.65499,1,P9,0,0,0
1,0.79598,1,P9,0,0,0
1,0.72884,1,P9,1,0,0
1,1.0135,1,P9,1,0,0
1,0.68669,1,P9,0,0,0
1,0.82986,1,P9,1,0,0
1,1.3151,1,P9,1,0,0
1,0.77036,1,P9,0,0,0
1,0.72523,1,P9,0,0,0
1,0.57242,1,P9,0,0,0
1,1.0919,1,P9,1,0,0
1,0.96076,1,P9,1,0,0
1,0.72178,1,P9,0,0,0
1,1.0071,1,P9,1,0,0
1,0.59057,1,P9,0,0,0
1,0.8791,1,P9,1,0,0
1,0.94396,1,P9,0,0,0
1,0.89476,1,P9,0,0,0
1,1.3257,1,P9,1,0,0
1,0.83053,1,P9,1,0,0
1,0.71567,1,P9,0,0,0
1,0.93272,1,P9,0,0,0
1,0.70964,1,P9,0,0,0
1,0.83273,1,P9,1,0,0
1,0.98562,1,P9,1,0,0
1,0.91111,1,P9,1,0,0
1,0.616,1,P9,0,0,0
1,0.69481,1,P9,0,0,0
1,1.0539,1,P9,1,0,0
1,0.93707,1,P9,1,0,0
1,0.66243,1,P9,0,0,0
1,0.65158,1,P9,0,0,0
1,0.72302,1,P9,0,0,0
1,0.77028,1,P9,1,0,0
1,0.69536,1,P9,0,0,0
1,0.81001,1,P9,0,0,0
1,0.63089,1,P9,0,0,0
1,1.0379,1,P9,1,0,0
1,1.2249,1,P9,1,0,0
1,0.61645,1,P9,0,0,0
1,0.91557,1,P9,1,0,0
1,0.82856,1,P9,0,0,0
1,0.76975,1,P9,0,0,0
1,0.72665,1,P9,0,0,0
1,0.97753,1,P9,1,0,0
1,0.84857,1,P9,1,0,0
2,0.97138,1,P9,0,0,1
2,0.62232,1,P9,0,0,0
2,0.75333,1,P9,0,0,0
2,0.94022,1,P9,1,0,0
2,0.87523,1,P9,1,0,0
2,0.71591,1,P9,0,0,0
2,0.83882,1,P9,1,0,0
2,1.0237,1,P9,0,0,0
2,0.65069,1,P9,0,0,0
2,0.58597,1,P9,0,0,0
2,1.0608,1,P9,1,0,0
2,0.8915,1,P9,1,0,0
2,0.73618,1,P9,1,0,0
2,0.72924,1,P9,0,0,0
2,0.65597,1,P9,0,0,0
2,0.72855,1,P9,1,0,0
2,0.86366,1,P9,1,0,0
2,1.1424,1,P9,1,0,0
2,0.6313,1,P9,0,0,0
2,0.9463,1,P9,1,0,0
2,0.97084,1,P9,1,0,0
2,1.3517,1,P9,1,0,0
2,1.5671,1,P9,0,0,0
2,1.1623,1,P9,1,0,0
2,1.2096,1,P9,1,0,0
2,0.69131,1,P9,0,0,0
2,0.74044,1,P9,1,0,0
2,0.7032,1,P9,0,0,0
2,0.67014,1,P9,0,0,0
2,0.60472,1,P9,0,0,0
2,1.0295,1,P9,1,0,0
2,0.88403,1,P9,0,0,0
2,0.72517,1,P9,1,0,0
2,1.0058,1,P9,1,0,0
2,0.77905,1,P9,1,0,0
2,0.66227,1,P9,0,0,0
2,0.66183,1,P9,0,0,0
2,0.75252,1,P9,0,0,0
2,0.73358,1,P9,1,0,0
2,0.64257,1,P9,0,0,0
2,0.74718,1,P9,0,0,0
2,0.81428,1,P9,1,0,0
2,0.90522,1,P9,1,0,0
2,0.91004,1,P9,0,0,0
2,1.1011,1,P9,1,0,0
2,0.78027,1,P9,0,0,0
2,0.82888,1,P9,0,0,0
2,0.95804,1,P9,1,0,0
2,0.89916,1,P9,0,0,0
2,0.82394,1,P9,0,0,0
2,0.79282,1,P9,1,0,0
3,1.0375,1,P9,0,0,1
3,0.64875,1,P9,1,0,0
3,0.61775,1,P9,0,0,0
3,0.56101,1,P9,0,0,0
3,1.0183,1,P9,1,0,0
3,0.73551,1,P9,1,0,0
3,0.70401,1,P9,0,0,0
3,0.65557,1,P9,0,0,0
3,0.62628,1,P9,0,0,0
3,0.88963,1,P9,1,0,0
3,0.80445,1,P9,0,0,0
3,0.69963,1,P9,1,0,0
3,0.93035,1,P9,1,0,0
3,0.76892,1,P9,0,0,0
3,0.72619,1,P9,1,0,0
3,0.65141,1,P9,0,0,0
3,0.71609,0,P9,1,0,0
3,0.67624,1,P9,0,0,0
3,1.0712,1,P9,1,0,0
3,0.91431,1,P9,1,0,0
3,0.66923,1,P9,0,0,0
3,0.72434,1,P9,1,0,0
3,0.89876,1,P9,1,0,0
3,0.73998,1,P9,1,0,0
3,0.77693,1,P9,0,0,0
3,0.80028,1,P9,1,0,0
3,0.87489,1,P9,1,0,0
3,0.6697,1,P9,0,0,0
3,0.5387,1,P9,0,0,0
3,0.64774,1,P9,0,0,0
3,1.0702,1,P9,1,0,0
3,0.86295,1,P9,1,0,0
3,0.9655,1,P9,1,0,0
3,0.7448,1,P9,0,0,0
3,0.6876,1,P9,0,0,0
3,1.0107,1,P9,1,0,0
3,0.42783,0,P9,1,0,0
3,0.64082,1,P9,0,0,0
3,0.62793,1,P9,0,0,0
3,0.87678,1,P9,1,0,0
3,1.6373,1,P9,1,0,0
3,0.98865,1,P9,0,0,0
3,0.61974,1,P9,0,0,0
3,1.2728,1,P9,0,0,0
3,0.73177,1,P9,1,0,0
3,0.95259,1,P9,1,0,0
3,0.81971,1,P9,1,0,0
3,0.59895,1,P9,0,0,0
3,0.72165,1,P9,0,0,0
3,1.1969,1,P9,0,0,0
3,0.84987,1,P9,1,0,0
3,0.64468,1,P9,0,0,0
3,1.1093,1,P9,0,0,0
3,0.77015,1,P9,0,0,0
3,0.73676,1,P9,1,0,0
3,0.51617,1,P9,0,0,0
3,0.63313,1,P9,0,0,0
3,1.0226,1,P9,1,0,0
3,0.84379,1,P9,1,0,0
3,0.9025,1,P9,1,0,0
3,0.66524,1,P9,0,0,0
3,0.88401,1,P9,0,0,0
3,0.99137,1,P9,1,0,0
1,0.94819,1,P10,0,0,1
1,0.78297,1,P10,1,0,0
1,0.58777,1,P10,1,0,0
1,0.59516,1,P10,0,0,0
1,0.64643,1,P10,1,0,0
1,0.66774,1,P10,1,0,0
1,0.74833,1,P10,0,0,0
1,0.62737,1,P10,1,0,0
1,0.82038,1,P10,1,0,0
1,0.73749,1,P10,1,0,0
1,0.5923,1,P10,0,0,0
1,0.56892,1,P10,0,0,0
1,0.69004,1,P10,0,0,0
1,0.71105,1,P10,1,0,0
1,0.74026,1,P10,1,0,0
1,0.56898,1,P10,0,0,0
1,0.81182,1,P10,1,0,0
1,0.87473,1,P10,1,0,0
1,0.71593,1,P10,0,0,0
1,0.63286,1,P10,0,0,0
1,0.67785,1,P10,1,0,0
1,0.73066,1,P10,1,0,0
1,0.81167,1,P10,0,0,0
1,0.78665,1,P10,1,0,0
1,0.79981,1,P10,1,0,0
1,0.66316,1,P10,0,0,0
1,0.61003,1,P10,0,0,0
1,0.68143,1,P10,0,0,0
1,0.72074,1,P10,1,0,0
1,0.70146,1,P10,1,0,0
1,0.69485,1,P10,0,0,0
1,0.676,1,P10,1,0,0
1,0.67511,1,P10,0,0,0
1,0.71584,1,P10,1,0,0
1,0.70063,1,P10,0,0,0
1,0.61969,1,P10,0,0,0
1,0.7866,1,P10,1,0,0
1,0.77131,1,P10,1,0,0
1,0.78445,1,P10,0,0,0
1,0.63379,1,P10,0,0,0
1,0.59423,1,P10,0,0,0
1,0.8295,1,P10,1,0,0
1,0.80653,1,P10,1,0,0
1,0.73178,1,P10,1,0,0
1,0.61297,1,P10,0,0,0
1,0.60347,1,P10,0,0,0
1,0.76281,1,P10,1,0,0
1,0.806,1,P10,1,0,0
1,0.62735,1,P10,0,0,0
1,0.57659,1,P10,0,0,0
1,0.60786,1,P10,0,0,0
1,0.63106,1,P10,1,0,0
1,0.61189,1,P10,0,0,0
1,0.55874,1,P10,0,0,0
1,0.61972,1,P10,0,0,0
1,0.90664,1,P10,1,0,0
1,1.1017,1,P10,1,0,0
1,0.74115,1,P10,0,0,0
1,0.84836,1,P10,1,0,0
1,0.60942,1,P10,0,0,0
1,0.80673,1,P10,0,0,0
1,0.65959,1,P10,0,0,0
1,0.7744,1,P10,1,0,0
1,0.85321,1,P10,1,0,0
2,0.91927,1,P10,0,0,1
2,1.2579,1,P10,0,0,0
2,0.66926,1,P10,0,0,0
2,0.69597,1,P10,1,0,0
2,0.78297,1,P10,1,0,0
2,0.55985,1,P10,0,0,0
2,0.64268,1,P10,1,0,0
2,0.70763,1,P10,0,0,0
2,0.53445,1,P10,0,0,0
2,0.67773,1,P10,0,0,0
2,1.3045,1,P10,1,0,0
2,0.99126,1,P10,1,0,0
2,0.76408,1,P10,1,0,0
2,0.58111,1,P10,0,0,0
2,0.61187,1,P10,0,0,0
2,0.74844,1,P10,1,0,0
2,0.7236,1,P10,1,0,0
2,0.58613,1,P10,1,0,0
2,0.61116,1,P10,0,0,0
2,0.78199,0,P10,1,0,0
2,0.75856,1,P10,1,0,0
2,0.85145,1,P10,1,0,0
2,0.99486,1,P10,0,0,0
2,0.99813,1,P10,1,0,0
2,0.8054,1,P10,1,0,0
2,0.73664,1,P10,1,0,0
2,0.57326,1,P10,0,0,0
2,0.59246,1,P10,0,0,0
2,0.63996,1,P10,0,0,0
2,0.63482,1,P10,1,0,0
2,0.86173,1,P10,1,0,0
2,0.77323,1,P10,1,0,0
2,0.57196,1,P10,0,0,0
2,0.64491,1,P10,0,0,0
2,0.85592,1,P10,0,0,0
2,0.90342,1,P10,1,0,0
2,0.81839,1,P10,1,0,0
2,0.76983,1,P10,1,0,0
2,0.78313,1,P10,0,0,0
2,0.79211,1,P10,1,0,0
2,0.66678,1,P10,0,0,0
2,0.79406,1,P10,0,0,0
2,0.76064,1,P10,0,0,0
2,0.79346,1,P10,1,0,0
2,0.70405,1,P10,0,0,0
2,0.81715,1,P10,1,0,0
2,0.68176,1,P10,1,0,0
2,0.94311,1,P10,1,0,0
2,0.92214,1,P10,0,0,0
2,0.75337,1,P10,0,0,0
2,0.72415,1,P10,0,0,0
2,0.64953,1,P10,1,0,0
2,0.63841,1,P10,0,0,0
2,0.64705,1,P10,0,0,0
2,0.79394,1,P10,1,0,0
2,0.8369,1,P10,1,0,0
2,0.6339,1,P10,0,0,0
2,0.84882,1,P10,1,0,0
2,0.7761,1,P10,0,0,0
2,0.6487,1,P10,0,0,0
2,0.73763,1,P10,1,0,0
2,0.74305,1,P10,0,0,0
2,0.81189,1,P10,0,0,0
2,0.81239,1,P10,1,0,0
1,0.87428,1,P10,0,0,1
1,0.7664,1,P10,1,0,0
1,0.55951,1,P10,0,0,0
1,0.53477,1,P10,0,0,0
1,0.74411,1,P10,1,0,0
1,0.70118,0,P10,1,0,0
1,0.96578,1,P10,0,0,0
1,0.66123,1,P10,0,0,0
1,0.66391,1,P10,0,0,0
1,0.97535,1,P10,1,0,0
1,0.55413,1,P10,0,0,0
1,0.69741,1,P10,1,0,0
1,0.82425,1,P10,1,0,0
1,0.52668,1,P10,0,0,0
1,0.66001,1,P10,1,0,0
1,0.62524,1,P10,0,0,0
1,0.93007,1,P10,1,0,0
1,0.7533,1,P10,1,0,0
1,0.59402,1,P10,0,0,0
1,0.90901,1,P10,1,0,0
1,0.73581,1,P10,1,0,0
1,0.61913,1,P10,0,0,0
1,0.73808,1,P10,1,0,0
1,0.75271,1,P10,1,0,0
1,0.76175,0,P10,1,0,0
1,0.56661,1,P10,0,0,0
1,0.72601,1,P10,1,0,0
1,0.83278,1,P10,1,0,0
1,0.59564,1,P10,0,0,0
1,0.68051,1,P10,0,0,0
1,0.72537,1,P10,0,0,0
1,0.8041,1,P10,1,0,0
1,0.99681,1,P10,1,0,0
1,0.69936,1,P10,1,0,0
1,0.63044,1,P10,0,0,0
1,0.54145,1,P10,0,0,0
1,0.70465,1,P10,1,0,0
1,0.96966,1,P10,1,0,0
1,0.74269,1,P10,0,0,0
1,0.61784,1,P10,0,0,0
1,0.67461,1,P10,1,0,0
1,0.77109,1,P10,1,0,0
1,1.0504,1,P10,0,0,0
1,0.64951,1,P10,0,0,0
1,0.56685,1,P10,0,0,0
1,0.71362,1,P10,1,0,0
1,0.64658,1,P10,1,0,0
1,0.85761,1,P10,1,0,0
1,0.66088,1,P10,0,0,0
1,0.63153,1,P10,0,0,0
1,0.69877,1,P10,0,0,0
1,0.73546,1,P10,1,0,0
1,0.60234,1,P10,0,0,0
1,0.66701,1,P10,0,0,0
1,0.70413,1,P10,0,0,0
1,0.86267,1,P10,1,0,0
1,0.65786,1,P10,0,0,0
1,0.66308,1,P10,0,0,0
1,0.74836,1,P10,1,0,0
1,0.74557,1,P10,1,0,0
1,0.70031,1,P10,1,0,0
1,0.59915,1,P10,0,0,0
1,0.66595,1,P10,0,0,0
1,0.61306,1,P10,1,0,0
2,1.0413,1,P10,0,0,1
2,0.78832,1,P10,1,0,0
2,0.79914,1,P10,1,0,0
2,0.71622,1,P10,0,0,0
2,0.67144,1,P10,0,0,0
2,0.68667,1,P10,1,0,0
2,0.80615,1,P10,1,0,0
2,1.0568,1,P10,1,0,0
2,0.71777,1,P10,0,0,0
2,0.76301,1,P10,1,0,0
2,0.88004,1,P10,1,0,0
2,0.70713,1,P10,0,0,0
2,0.65834,1,P10,0,0,0
2,0.58117,1,P10,0,0,0
2,0.92235,1,P10,1,0,0
2,0.70174,1,P10,0,0,0
2,0.76839,1,P10,0,0,0
2,0.72152,1,P10,1,0,0
2,0.70424,1,P10,1,0,0
2,0.97131,1,P10,1,0,0
2,0.63595,1,P10,0,0,0
2,0.67498,1,P10,0,0,0
2,0.86004,1,P10,1,0,0
2,0.7434,1,P10,0,0,0
2,0.67031,1,P10,0,0,0
2,0.61113,1,P10,0,0,0
2,1.1519,1,P10,1,0,0
2,0.76666,1,P10,1,0,0
2,0.62328,1,P10,0,0,0
2,0.56574,1,P10,0,0,0
2,0.78935,1,P10,1,0,0
2,0.86862,1,P10,1,0,0
2,0.90372,1,P10,1,0,0
2,0.65081,1,P10,0,0,0
2,0.82631,1,P10,1,0,0
2,0.71365,1,P10,1,0,0
2,0.64857,1,P10,0,0,0
2,0.72749,1,P10,0,0,0
2,0.86426,1,P10,1,0,0
2,0.89352,1,P10,0,0,0
2,0.61224,1,P10,0,0,0
2,0.63124,1,P10,0,0,0
2,0.55213,1,P10,1,0,0
2,0.62249,1,P10,0,0,0
2,0.67537,1,P10,0,0,0
2,0.71635,1,P10,1,0,0
2,0.77321,1,P10,1,0,0
2,0.74613,1,P10,0,0,0
2,0.73515,1,P10,0,0,0
2,0.67624,1,P10,1,0,0
2,0.69978,1,P10,0,0,0
2,0.75069,1,P10,1,0,0
2,0.62972,1,P10,0,0,0
2,0.66664,1,P10,0,0,0
2,0.68125,1,P10,1,0,0
2,0.64869,1,P10,1,0,0
2,0.60369,1,P10,0,0,0
2,0.62282,1,P10,0,0,0
2,0.72411,1,P10,1,0,0
2,0.6107,1,P10,1,0,0
2,0.8457,1,P10,1,0,0
2,0.64445,1,P10,0,0,0
2,0.7898,1,P10,1,0,0
2,0.70036,1,P10,1,0,0
1,1.2894,1,P11,1,0,1
1,1.0703,1,P11,1,0,0
1,0.70984,1,P11,0,0,0
1,1.1129,1,P11,1,0,0
1,1.3182,1,P11,1,0,0
1,0.83886,1,P11,0,0,0
1,1.31,1,P11,1,0,0
1,1.5028,1,P11,1,0,0
1,1.5721,1,P11,1,0,0
1,0.7867,1,P11,0,0,0
1,0.93145,1,P11,0,0,0
1,1.6364,1,P11,0,0,0
1,1.4973,1,P11,1,0,0
1,0.76672,1,P11,1,0,0
1,0.58748,1,P11,0,0,0
1,1.1904,1,P11,1,0,0
1,1.1813,1,P11,1,0,0
1,0.88648,1,P11,0,0,0
1,1.3552,1,P11,0,0,0
1,0.80829,1,P11,1,0,0
1,1.1652,1,P11,1,0,0
1,0.56625,1,P11,0,0,0
1,0.75707,1,P11,1,0,0
1,1.4903,1,P11,1,0,0
1,1.2578,1,P11,0,0,0
1,0.7726,1,P11,0,0,0
1,0.66795,1,P11,0,0,0
1,0.82715,1,P11,1,0,0
1,1.0559,1,P11,1,0,0
1,0.68113,1,P11,0,0,0
1,1.0943,1,P11,1,0,0
1,0.75772,1,P11,0,0,0
1,1.0624,1,P11,1,0,0
1,0.7591,1,P11,0,0,0
1,0.81415,1,P11,0,0,0
1,0.86096,0,P11,1,0,0
1,1.1017,1,P11,1,0,0
1,0.98701,1,P11,0,0,0
1,0.5001,1,P11,0,0,0
1,0.67693,1,P11,0,0,0
1,0.83999,1,P11,1,0,0
1,1.3531,1,P11,1,0,0
1,1.0063,1,P11,1,0,0
1,0.66357,1,P11,0,0,0
1,0.734,1,P11,0,0,0
1,0.8774,1,P11,1,0,0
1,1.1127,1,P11,1,0,0
1,0.62954,1,P11,0,0,0
1,0.555,1,P11,0,0,0
1,0.71446,1,P11,0,0,0
1,1.1138,1,P11,1,0,0
1,1.1185,1,P11,0,0,0
1,0.56933,1,P11,0,0,0
1,0.73411,1,P11,0,0,0
1,1.1091,1,P11,1,0,0
1,1.0724,1,P11,1,0,0
1,0.72779,1,P11,0,0,0
1,1.2988,1,P11,1,0,0
1,0.67596,1,P11,0,0,0
1,0.60112,1,P11,0,0,0
1,0.60625,1,P11,0,0,0
1,1.529,0,P11,1,0,0
1,1.5924,0,P12,0,0,1
1,1.4751,1,P12,1,0,0
1,1.1121,1,P12,1,0,0
1,1.4234,1,P12,0,0,0
1,1.1545,1,P12,1,0,0
1,1.4396,1,P12,1,0,0
1,0.92857,1,P12,0,0,0
1,0.95941,1,P12,1,0,0
1,1.2726,1,P12,1,0,0
1,0.9177,1,P12,1,0,0
1,1.0364,1,P12,0,0,0
1,0.97312,1,P12,0,0,0
1,1.2062,1,P12,0,0,0
1,1.3684,1,P12,1,0,0
1,0.74936,1,P12,0,0,0
1,0.98409,0,P12,1,0,0
1,1.3831,1,P12,1,0,0
1,0.75215,1,P12,0,0,0
1,1.0449,1,P12,0,0,0
1,1.002,1,P12,1,0,0
1,0.87878,1,P12,1,0,0
1,0.8718,1,P12,0,0,0
1,1.3827,0,P12,1,0,0
1,1.2199,1,P12,1,0,0
1,0.90737,1,P12,0,0,0
1,0.95018,1,P12,0,0,0
1,0.82956,1,P12,0,0,0
1,1.3168,1,P12,1,0,0
1,1.1938,1,P12,1,0,0
1,0.75485,1,P12,0,0,0
1,1.7119,1,P12,1,0,0
1,0.85539,1,P12,0,0,0
1,1.4482,1,P12,1,0,0
1,1.0009,1,P12,0,0,0
1,0.87191,1,P12,0,0,0
1,0.91865,1,P12,1,0,0
1,1.2554,1,P12,1,0,0
1,0.80466,1,P12,0,0,0
1,1.0058,1,P12,0,0,0
1,0.75052,1,P12,0,0,0
1,1.2657,1,P12,1,0,0
1,0.98664,1,P12,1,0,0
1,1.4,1,P12,1,0,0
1,0.72099,1,P12,0,0,0
1,0.90372,1,P12,0,0,0
1,1.4708,1,P12,1,0,0
1,1.4262,1,P12,1,0,0
1,1.0075,1,P12,0,0,0
1,1.1005,1,P12,0,0,0
1,0.83596,1,P12,0,0,0
1,1.4193,1,P12,1,0,0
1,0.78431,1,P12,0,0,0
1,0.81106,1,P12,0,0,0
1,0.76779,1,P12,0,0,0
1,1.055,1,P12,1,0,0
1,1.1221,1,P12,1,0,0
1,0.79337,1,P12,0,0,0
1,1.1486,1,P12,1,0,0
1,0.93363,1,P12,0,0,0
1,1.1867,1,P12,0,0,0
1,0.88762,1,P12,0,0,0
1,1.1385,1,P12,1,0,0
1,1.0416,0,P12,1,0,0
2,1.5073,1,P12,0,0,1
2,0.65399,1,P12,0,0,0
2,0.92919,1,P12,0,0,0
2,0.98794,1,P12,1,0,0
2,1.0028,0,P12,1,0,0
2,0.71567,1,P12,0,0,0
2,0.91862,1,P12,1,0,0
2,0.92753,1,P12,0,0,0
2,0.93844,1,P12,0,0,0
2,0.78568,1,P12,0,0,0
2,1.1806,1,P12,1,0,0
2,1.587,1,P12,1,0,0
2,1.1762,1,P12,1,0,0
2,0.865,1,P12,0,0,0
2,0.91957,1,P12,0,0,0
2,1.1442,1,P12,1,0,0
2,1.0154,1,P12,1,0,0
2,1.246,1,P12,1,0,0
2,0.77513,1,P12,0,0,0
2,1.5058,1,P12,1,0,0
2,1.2506,1,P12,1,0,0
2,1.0636,1,P12,1,0,0
2,0.87886,1,P12,0,0,0
2,1.2019,1,P12,1,0,0
2,1.5133,1,P12,1,0,0
2,1.1645,1,P12,1,0,0
2,0.91334,1,P12,0,0,0
2,0.91662,1,P12,0,0,0
2,0.68383,1,P12,0,0,0
2,1.1585,1,P12,1,0,0
2,1.1938,1,P12,1,0,0
2,0.91324,1,P12,1,0,0
2,0.83992,1,P12,0,0,0
2,0.70475,1,P12,0,0,0
2,0.65991,1,P12,0,0,0
2,0.85932,1,P12,1,0,0
2,0.91038,1,P12,1,0,0
2,1.2058,1,P12,1,0,0
2,0.77103,1,P12,0,0,0
2,1.1162,1,P12,1,0,0
2,0.75903,1,P12,0,0,0
2,0.66201,1,P12,0,0,0
2,1.2125,1,P12,0,0,0
2,1.0693,1,P12,1,0,0
2,0.65996,1,P12,0,0,0
2,1.309,1,P12,1,0,0
2,1.4217,1,P12,1,0,0
2,1.0989,1,P12,1,0,0
2,1.07,1,P12,0,0,0
2,0.86934,1,P12,0,0,0
2,0.78419,1,P12,0,0,0
2,0.94154,1,P12,1,0,0
2,0.75416,1,P12,0,0,0
2,0.94707,1,P12,0,0,0
2,1.0059,1,P12,1,0,0
2,0.96102,1,P12,1,0,0
2,0.85382,1,P12,0,0,0
2,1.4128,1,P12,1,0,0
2,0.77178,1,P12,0,0,0
2,0.7566,1,P12,0,0,0
2,1.1176,1,P12,1,0,0
2,0.57095,1,P12,0,0,0
2,0.5758,1,P12,0,0,0
2,1.3285,1,P12,1,0,0
1,1.233,1,P12,0,0,1
1,1.2372,1,P12,1,0,0
1,0.86225,1,P12,0,0,0
1,0.80565,1,P12,0,0,0
1,1.3265,1,P12,1,0,0
1,1.4206,1,P12,0,0,0
1,0.82,1,P12,0,0,0
1,0.67064,0,P12,0,0,0
1,1.35,1,P12,1,0,0
1,1.3288,1,P12,0,0,0
1,1.224,0,P12,1,0,0
1,1.3908,1,P12,1,0,0
1,1.3973,1,P12,0,0,0
1,1.2987,1,P12,1,0,0
1,0.7039,1,P12,0,0,0
1,1.6006,1,P12,1,0,0
1,1.6079,1,P12,1,0,0
1,1.2089,1,P12,0,0,0
1,1.5959,1,P12,1,0,0
1,1.1266,1,P12,1,0,0
1,1.0177,1,P12,0,0,0
1,1.4808,1,P12,1,0,0
1,1.5514,1,P12,1,0,0
1,1.3205,1,P12,1,0,0
1,1.2454,1,P12,0,0,0
1,1.3487,1,P12,1,0,0
1,1.4395,1,P12,1,0,0
1,0.6822,1,P12,0,0,0
1,1.0072,1,P12,0,0,0
1,0.88412,1,P12,0,0,0
1,1.1308,1,P12,1,0,0
1,1.2594,1,P12,1,0,0
1,1.2982,1,P12,1,0,0
1,1.2371,1,P12,0,0,0
1,0.8362,1,P12,0,0,0
1,1.5913,1,P12,1,0,0
1,1.3284,1,P12,1,0,0
1,1.1094,1,P12,0,0,0
1,1.2083,1,P12,0,0,0
1,1.2732,1,P12,1,0,0
1,1.4979,1,P12,1,0,0
1,0.9932,1,P12,0,0,0
1,1.1522,1,P12,0,0,0
1,1.1654,1,P12,0,0,0
1,1.7201,1,P12,1,0,0
1,1.2291,1,P12,1,0,0
1,1.4404,1,P12,1,0,0
1,0.78744,1,P12,0,0,0
1,1.1981,1,P12,0,0,0
1,1.4093,1,P12,0,0,0
1,0.92906,1,P12,0,0,0
1,0.89779,1,P12,0,0,0
1,0.96661,1,P12,0,0,0
1,0.97329,1,P12,1,0,0
1,1.2326,1,P12,0,0,0
1,1.4669,1,P12,1,0,0
1,1.3841,1,P12,1,0,0
1,1.5869,1,P12,1,0,0
1,0.82975,1,P12,0,0,0
1,0.82454,1,P12,0,0,0
1,1.2117,1,P12,1,0,0
2,1.2364,1,P12,0,0,1
2,0.71163,1,P12,0,0,0
2,1.3404,0,P12,0,0,0
2,0.80547,1,P12,0,0,0
2,1.4686,1,P12,1,0,0
2,0.94153,1,P12,1,0,0
2,0.89267,1,P12,1,0,0
2,0.89739,1,P12,0,0,0
2,0.69614,1,P12,0,0,0
2,0.79875,1,P12,0,0,0
2,1.3475,1,P12,1,0,0
2,1.1789,1,P12,1,0,0
2,0.7122,1,P12,0,0,0
2,1.075,1,P12,0,0,0
2,1.0681,1,P12,1,0,0
2,1.3946,1,P12,1,0,0
2,0.77562,1,P12,0,0,0
2,0.89418,1,P12,1,0,0
2,0.6809,1,P12,0,0,0
2,0.87378,1,P12,0,0,0
2,1.4327,1,P12,1,0,0
2,0.93989,1,P12,1,0,0
2,1.1449,1,P12,1,0,0
2,0.88034,1,P12,0,0,0
2,0.92564,1,P12,0,0,0
2,1.3144,1,P12,1,0,0
2,1.1612,1,P12,1,0,0
2,1.1424,1,P12,1,0,0
2,0.98309,1,P12,0,0,0
2,0.84635,1,P12,0,0,0
2,1.0837,1,P12,1,0,0
2,0.70169,1,P12,0,0,0
2,0.8331,1,P12,0,0,0
2,1.1275,1,P12,1,0,0
2,1.1104,1,P12,1,0,0
2,0.65154,1,P12,0,0,0
2,1.1381,1,P12,1,0,0
2,1.0109,1,P12,0,0,0
2,0.80588,1,P12,0,0,0
2,1.2008,1,P12,1,0,0
2,1.4077,1,P12,1,0,0
2,0.82482,1,P12,0,0,0
2,0.74555,1,P12,0,0,0
2,1.1199,1,P12,1,0,0
2,0.75881,1,P12,0,0,0
2,0.95579,1,P12,0,0,0
2,0.72287,1,P12,0,0,0
2,1.458,1,P12,1,0,0
2,1.3568,1,P12,1,0,0
2,0.78734,1,P12,0,0,0
2,0.69863,1,P12,0,0,0
2,0.90995,1,P12,0,0,0
2,1.2273,1,P12,1,0,0
2,0.886,1,P12,0,0,0
2,1.3549,1,P12,1,0,0
2,0.58771,1,P12,0,0,0
2,1.1466,1,P12,1,0,0
2,1.0917,1,P12,1,0,0
2,1.0821,1,P12,1,0,0
2,1.1512,1,P12,0,0,0
2,1.1222,1,P12,1,0,0
2,1.501,0,P12,1,0,0
2,1.0277,1,P12,1,0,0
1,0.89422,1,P8,1,0,1
1,0.96591,1,P8,1,0,0
1,0.86896,1,P8,1,0,0
1,0.46981,1,P8,0,0,0
1,0.73712,1,P8,0,0,0
1,0.83617,1,P8,0,0,0
1,1.1933,0,P8,1,0,0
1,1.04,1,P8,1,0,0
1,0.85281,1,P8,1,0,0
1,0.77788,1,P8,0,0,0
1,0.82469,1,P8,1,0,0
1,0.61377,1,P8,0,0,0
1,0.93041,1,P8,1,0,0
1,0.75179,1,P8,0,0,0
1,0.61474,1,P8,1,0,0
1,1.0419,1,P8,1,0,0
1,1.1751,1,P8,1,0,0
1,0.61819,1,P8,0,0,0
1,0.87122,1,P8,1,0,0
1,1.0959,1,P8,1,0,0
1,0.9892,1,P8,1,0,0
1,0.67421,1,P8,0,0,0
1,0.75305,1,P8,1,0,0
1,0.75256,1,P8,0,0,0
1,0.57161,1,P8,0,0,0
1,0.89093,1,P8,1,0,0
1,0.84155,1,P8,0,0,0
1,0.84894,1,P8,0,0,0
1,0.98426,1,P8,0,0,0
1,0.96721,1,P8,1,0,0
1,0.56995,1,P8,0,0,0
1,0.78884,1,P8,0,0,0
1,0.99986,1,P8,1,0,0
1,1.0213,1,P8,1,0,0
1,1.0825,1,P8,1,0,0
1,0.3997,1,P8,0,0,0
1,1.0206,1,P8,1,0,0
1,0.84946,1,P8,1,0,0
1,0.86833,1,P8,1,0,0
1,0.63886,1,P8,0,0,0
1,0.91633,1,P8,0,0,0
1,1.195,1,P8,1,0,0
1,0.81828,1,P8,0,0,0
1,0.72766,1,P8,0,0,0
1,0.91654,1,P8,1,0,0
1,0.69901,1,P8,0,0,0
1,0.75024,1,P8,0,0,0
1,0.66124,1,P8,0,0,0
1,1.0522,1,P8,1,0,0
1,0.95931,1,P8,1,0,0
1,1.0204,1,P8,1,0,0
1,0.67344,1,P8,0,0,0
1,0.50252,1,P8,0,0,0
1,0.79166,1,P8,0,0,0
1,0.87689,1,P8,1,0,0
1,1.3163,1,P8,1,0,0
1,1.0519,1,P8,1,0,0
1,0.79659,1,P8,0,0,0
1,0.75316,1,P8,0,0,0
1,1.2661,1,P8,0,0,0
1,1.0531,0,P8,1,0,0
1,1.0539,1,P8,0,0,0
1,0.88064,1,P8,0,0,0
1,1.2057,0,P8,1,0,0
2,0.84564,1,P8,1,1,1
2,0.63037,1,P8,0,1,0
2,1.0154,1,P8,1,1,0
2,0.90235,1,P8,1,1,0
2,0.80762,0,P8,1,1,0
2,0.76651,1,P8,0,1,0
2,0.87577,1,P8,1,1,0
2,1.1703,1,P8,1,1,0
2,0.83168,1,P8,0,1,0
2,0.82652,1,P8,0,1,0
2,0.77746,1,P8,1,1,0
2,0.75077,1,P8,0,1,0
2,0.68767,1,P8,0,1,0
2,0.78251,1,P8,0,1,0
2,1.0548,1,P8,1,1,0
2,1.3243,1,P8,1,1,0
2,0.8813,1,P8,0,1,0
2,1.006,1,P8,1,1,0
2,0.68716,1,P8,0,1,0
2,0.48585,1,P8,0,1,0
2,0.61473,1,P8,1,1,0
2,0.83771,1,P8,1,1,0
2,1.0467,1,P8,1,1,0
2,0.66549,1,P8,0,1,0
2,0.69445,1,P8,1,1,0
2,0.43332,1,P8,0,1,0
2,0.66826,1,P8,0,1,0
2,0.82125,1,P8,0,1,0
2,0.73444,1,P8,1,1,0
2,0.45942,1,P8,0,1,0
2,1.124,1,P8,0,1,0
2,0.93521,1,P8,1,1,0
2,0.82843,1,P8,0,1,0
2,0.75736,1,P8,0,1,0
2,0.94014,1,P8,1,1,0
2,1.4252,1,P8,1,1,0
2,1.3265,1,P8,1,1,0
2,0.72981,1,P8,0,1,0
2,0.77277,1,P8,0,1,0
2,0.6596,1,P8,0,1,0
2,0.84884,1,P8,1,1,0
2,0.80612,1,P8,1,1,0
2,0.70051,1,P8,1,1,0
2,0.87731,1,P8,0,1,0
2,0.88449,1,P8,0,1,0
2,0.95913,1,P8,0,1,0
2,1.3702,1,P8,1,1,0
2,1.2134,1,P8,1,1,0
2,1.3404,1,P8,1,1,0
2,1.1353,1,P8,0,1,0
2,1.5742,1,P8,0,1,0
2,1.625,1,P8,0,1,0
2,1.4438,1,P8,1,1,0
2,1.2331,1,P8,0,1,0
2,1.5478,1,P8,1,1,0
2,1.395,1,P8,0,1,0
2,1.2937,1,P8,0,1,0
2,1.3505,1,P8,1,1,0
2,1.4732,1,P8,1,1,0
2,1.152,1,P8,1,1,0
2,1.2954,1,P8,0,1,0
2,1.1366,1,P8,1,1,0
2,1.3497,1,P8,1,1,0
1,1.6028,1,P9,1,0,1
1,0.83965,1,P9,1,0,0
1,0.90301,1,P9,0,0,0
1,0.90616,1,P9,1,0,0
1,0.81538,1,P9,1,0,0
1,0.72007,1,P9,0,0,0
1,0.90317,1,P9,1,0,0
1,0.90422,1,P9,1,0,0
1,0.78142,1,P9,1,0,0
1,0.64408,1,P9,0,0,0
1,0.58885,1,P9,0,0,0
1,1.5739,1,P9,0,0,0
1,1.0508,1,P9,1,0,0
1,0.99996,1,P9,1,0,0
1,0.61291,1,P9,0,0,0
1,0.7196,1,P9,1,0,0
1,0.94258,1,P9,1,0,0
1,0.74363,1,P9,0,0,0
1,0.84479,1,P9,0,0,0
1,0.86547,1,P9,1,0,0
1,1.0304,1,P9,1,0,0
1,0.63931,1,P9,0,0,0
1,0.74236,1,P9,1,0,0
1,0.80389,1,P9,1,0,0
1,0.75493,1,P9,0,0,0
1,0.78976,1,P9,0,0,0
1,0.64527,1,P9,0,0,0
1,1.1165,1,P9,1,0,0
1,0.74536,1,P9,1,0,0
1,0.57837,1,P9,0,0,0
1,0.85586,1,P9,1,0,0
1,0.52721,1,P9,0,0,0
1,1.0158,1,P9,1,0,0
1,0.76038,1,P9,0,0,0
1,0.63137,1,P9,0,0,0
1,1.1343,1,P9,1,0,0
1,0.70321,1,P9,1,0,0
1,0.7084,1,P9,0,0,0
1,1.0935,1,P9,0,0,0
1,1.0061,1,P9,0,0,0
1,0.89732,1,P9,1,0,0
1,0.86641,1,P9,1,0,0
1,1.0237,1,P9,1,0,0
1,0.55261,1,P9,0,0,0
1,0.66335,1,P9,0,0,0
1,0.87869,1,P9,1,0,0
1,0.89787,1,P9,1,0,0
1,0.80697,1,P9,0,0,0
1,0.58838,1,P9,0,0,0
1,0.52378,1,P9,0,0,0
1,0.64316,1,P9,1,0,0
1,0.63991,1,P9,0,0,0
1,0.58657,1,P9,0,0,0
1,0.64759,1,P9,0,0,0
1,0.93451,1,P9,1,0,0
1,1.0658,1,P9,1,0,0
1,0.54521,1,P9,0,0,0
1,1.3963,1,P9,1,0,0
1,0.78122,1,P9,0,0,0
1,0.90642,1,P9,0,0,0
1,0.7114,1,P9,0,0,0
1,1.0743,1,P9,1,0,0
1,0.84916,1,P9,1,0,0
2,0.7877,1,P9,1,1,1
2,0.85437,1,P9,1,1,0
2,0.77122,1,P9,1,1,0
2,0.87463,1,P9,0,1,0
2,0.75778,1,P9,1,1,0
2,0.77911,1,P9,1,1,0
2,0.63584,1,P9,0,1,0
2,0.81868,1,P9,1,1,0
2,0.92379,1,P9,1,1,0
2,0.72102,1,P9,1,1,0
2,0.50381,1,P9,0,1,0
2,0.71231,1,P9,0,1,0
2,0.68962,1,P9,0,1,0
2,0.72628,1,P9,1,1,0
2,1.1554,1,P9,1,1,0
2,0.60857,1,P9,0,1,0
2,0.71521,1,P9,1,1,0
2,0.81016,1,P9,1,1,0
2,0.62732,1,P9,0,1,0
2,0.65627,1,P9,0,1,0
2,0.70123,1,P9,1,1,0
2,0.85795,1,P9,1,1,0
2,0.55511,1,P9,0,1,0
2,0.69002,1,P9,1,1,0
2,0.87936,1,P9,1,1,0
2,0.60655,1,P9,0,1,0
2,0.68147,1,P9,0,1,0
2,0.63294,1,P9,0,1,0
2,0.89621,1,P9,1,1,0
2,0.76496,1,P9,1,1,0
2,0.57417,1,P9,0,1,0
2,0.7952,1,P9,1,1,0
2,0.55466,1,P9,0,1,0
2,0.86732,1,P9,1,1,0
2,0.64401,1,P9,0,1,0
2,0.61922,1,P9,0,1,0
2,1.0341,1,P9,1,1,0
2,0.73085,1,P9,1,1,0
2,0.63989,1,P9,0,1,0
2,0.81704,1,P9,0,1,0
2,0.64981,1,P9,0,1,0
2,0.8449,1,P9,1,1,0
2,1.0699,1,P9,1,1,0
2,0.73915,1,P9,1,1,0
2,0.57246,1,P9,0,1,0
2,0.86715,1,P9,0,1,0
2,0.8262,1,P9,1,1,0
2,0.80539,1,P9,1,1,0
2,0.9306,1,P9,0,1,0
2,0.67197,1,P9,0,1,0
2,0.64744,1,P9,0,1,0
2,0.82265,1,P9,1,1,0
2,0.66758,1,P9,0,1,0
2,0.54236,1,P9,0,1,0
2,0.60317,1,P9,0,1,0
2,0.89827,1,P9,1,1,0
2,0.9574,1,P9,1,1,0
2,0.68474,1,P9,0,1,0
2,0.88781,1,P9,1,1,0
2,0.56888,1,P9,0,1,0
2,0.76605,1,P9,0,1,0
2,0.98182,1,P9,1,1,0
2,0.66889,1,P9,1,1,0
3,1.1033,1,P9,1,1,1
3,0.66616,1,P9,0,1,0
3,0.64553,1,P9,0,1,0
3,0.91217,1,P9,1,1,0
3,1.3992,1,P9,1,1,0
3,0.52782,1,P9,0,1,0
3,0.58676,1,P9,1,1,0
3,0.62773,1,P9,0,1,0
3,0.55961,1,P9,0,1,0
3,0.55789,1,P9,0,1,0
3,0.92875,1,P9,1,1,0
3,0.76735,1,P9,1,1,0
3,0.70014,1,P9,1,1,0
3,0.57331,1,P9,0,1,0
3,0.73978,1,P9,0,1,0
3,0.7806,1,P9,1,1,0
3,0.91557,1,P9,1,1,0
3,1.026,1,P9,1,1,0
3,0.65141,1,P9,0,1,0
3,0.99009,1,P9,1,1,0
3,0.84695,1,P9,1,1,0
3,0.70766,1,P9,1,1,0
3,0.57894,1,P9,0,1,0
3,0.80625,1,P9,1,1,0
3,0.76548,1,P9,1,1,0
3,0.7528,1,P9,1,1,0
3,0.67759,1,P9,0,1,0
3,0.52876,1,P9,0,1,0
3,0.63994,1,P9,0,1,0
3,0.89082,1,P9,1,1,0
3,0.84597,1,P9,1,1,0
3,0.78137,1,P9,1,1,0
3,0.53197,1,P9,0,1,0
3,0.6691,1,P9,0,1,0
3,0.60023,1,P9,0,1,0
3,0.87952,1,P9,1,1,0
3,0.9466,1,P9,1,1,0
3,1.1621,1,P9,1,1,0
3,0.71918,1,P9,0,1,0
3,0.72036,1,P9,1,1,0
3,0.63516,1,P9,0,1,0
3,0.56226,1,P9,0,1,0
3,0.54481,1,P9,0,1,0
3,0.98542,1,P9,1,1,0
3,0.52009,1,P9,0,1,0
3,0.73725,1,P9,1,1,0
3,1.0417,1,P9,1,1,0
3,0.70307,1,P9,1,1,0
3,0.89818,1,P9,0,1,0
3,0.67351,1,P9,0,1,0
3,0.65248,1,P9,0,1,0
3,0.82567,1,P9,1,1,0
3,0.60658,1,P9,0,1,0
3,0.9673,1,P9,0,1,0
3,0.85012,1,P9,1,1,0
3,0.95718,1,P9,1,1,0
3,0.58616,1,P9,0,1,0
3,0.88115,1,P9,1,1,0
3,0.61597,1,P9,0,1,0
3,0.5367,1,P9,0,1,0
3,0.77773,1,P9,1,1,0
3,0.80716,1,P9,0,1,0
3,0.59598,1,P9,0,1,0
3,1.0688,1,P9,1,1,0
4,0.80696,1,P9,1,1,1
4,0.674,1,P9,1,1,0
4,0.49898,1,P9,0,1,0
4,0.60218,1,P9,0,1,0
4,0.61945,1,P9,1,1,0
4,0.72862,1,P9,1,1,0
4,0.60932,1,P9,0,1,0
4,0.56068,1,P9,0,1,0
4,0.70748,1,P9,0,1,0
4,0.53886,0,P9,1,1,0
4,0.55776,1,P9,0,1,0
4,0.60513,1,P9,1,1,0
4,0.99556,1,P9,1,1,0
4,0.58619,1,P9,0,1,0
4,0.62367,1,P9,1,1,0
4,0.49272,1,P9,0,1,0
4,1.0855,1,P9,1,1,0
4,0.95672,1,P9,1,1,0
4,0.69372,1,P9,0,1,0
4,0.83265,1,P9,1,1,0
4,0.81153,1,P9,1,1,0
4,0.63059,1,P9,0,1,0
4,0.71767,1,P9,1,1,0
4,0.78819,1,P9,1,1,0
4,0.75726,1,P9,1,1,0
4,0.56215,1,P9,0,1,0
4,0.71345,1,P9,1,1,0
4,0.8044,1,P9,1,1,0
4,0.55114,1,P9,0,1,0
4,0.52418,1,P9,0,1,0
4,0.67297,1,P9,0,1,0
4,0.8155,1,P9,1,1,0
4,1.0403,1,P9,1,1,0
4,0.67093,1,P9,1,1,0
4,0.87416,1,P9,0,1,0
4,0.69684,1,P9,0,1,0
4,0.66026,0,P9,1,1,0
4,0.94934,1,P9,1,1,0
4,0.80212,1,P9,0,1,0
4,0.63734,1,P9,0,1,0
4,0.72604,1,P9,1,1,0
4,0.99871,1,P9,1,1,0
4,0.75803,1,P9,0,1,0
4,0.67716,1,P9,0,1,0
4,0.55434,1,P9,0,1,0
4,0.78102,1,P9,1,1,0
4,0.64994,1,P9,1,1,0
4,0.6692,1,P9,1,1,0
4,0.59231,1,P9,0,1,0
4,0.5632,1,P9,0,1,0
4,0.6702,1,P9,0,1,0
4,0.73107,1,P9,1,1,0
4,0.99,1,P9,0,1,0
4,0.77478,1,P9,0,1,0
4,0.59574,1,P9,0,1,0
4,0.77827,1,P9,1,1,0
4,0.70933,1,P9,0,1,0
4,0.63467,1,P9,0,1,0
4,0.91182,1,P9,1,1,0
4,0.77306,1,P9,1,1,0
4,1.0638,1,P9,1,1,0
4,0.49083,1,P9,0,1,0
4,0.7415,1,P9,0,1,0
4,0.78485,0,P9,1,1,0
5,0.73061,1,P9,1,1,1
5,0.85337,1,P9,1,1,0
5,0.83217,1,P9,1,1,0
5,0.96543,1,P9,0,1,0
5,0.65661,1,P9,0,1,0
5,0.96784,1,P9,1,1,0
5,1.0313,1,P9,1,1,0
5,1.0102,1,P9,1,1,0
5,0.71886,1,P9,0,1,0
5,0.92415,1,P9,1,1,0
5,1.273,1,P9,1,1,0
5,0.79636,1,P9,0,1,0
5,0.72352,1,P9,0,1,0
5,0.71849,1,P9,0,1,0
5,1.1718,1,P9,1,1,0
5,0.63074,1,P9,0,1,0
5,0.59358,1,P9,0,1,0
5,1.0187,1,P9,1,1,0
5,1.0732,1,P9,1,1,0
5,0.98034,1,P9,1,1,0
5,1.1333,1,P9,0,1,0
5,0.64413,1,P9,0,1,0
5,0.78923,1,P9,1,1,0
5,0.77626,1,P9,0,1,0
5,0.83135,1,P9,0,1,0
5,0.71632,1,P9,0,1,0
5,1.0811,1,P9,1,1,0
5,0.7438,1,P9,1,1,0
5,0.7524,1,P9,0,1,0
5,0.79916,1,P9,0,1,0
5,0.79038,1,P9,1,1,0
5,1.2377,1,P9,1,1,0
5,0.94494,1,P9,1,1,0
5,0.67584,1,P9,0,1,0
5,1.3395,1,P9,1,1,0
5,1.1946,1,P9,1,1,0
5,0.58563,1,P9,0,1,0
5,0.88062,1,P9,0,1,0
5,0.89735,1,P9,1,1,0
5,0.78266,1,P9,0,1,0
5,0.64521,1,P9,0,1,0
5,0.73649,1,P9,0,1,0
5,0.84106,1,P9,1,1,0
5,0.80769,1,P9,0,1,0
5,1.0048,1,P9,0,1,0
5,1.0615,1,P9,1,1,0
5,0.83052,1,P9,1,1,0
5,0.65937,1,P9,0,1,0
5,0.92818,1,P9,0,1,0
5,0.84537,1,P9,1,1,0
5,0.67696,1,P9,0,1,0
5,0.78398,1,P9,1,1,0
5,0.78775,1,P9,0,1,0
5,0.89043,1,P9,1,1,0
5,0.73773,1,P9,1,1,0
5,0.98079,1,P9,0,1,0
5,0.616,1,P9,0,1,0
5,0.62935,1,P9,1,1,0
5,0.90011,1,P9,1,1,0
5,1.1907,1,P9,1,1,0
5,0.87778,1,P9,0,1,0
5,0.79876,1,P9,1,1,0
5,0.97337,1,P9,1,1,0
1,0.81648,0,P10,1,0,1
1,0.88425,1,P10,1,0,0
1,0.72923,1,P10,1,0,0
1,0.59259,1,P10,0,0,0
1,0.88374,1,P10,1,0,0
1,0.75299,1,P10,1,0,0
1,0.53776,1,P10,0,0,0
1,0.64079,1,P10,1,0,0
1,0.70573,0,P10,1,0,0
1,0.61494,1,P10,1,0,0
1,0.53366,1,P10,0,0,0
1,0.58238,1,P10,0,0,0
1,0.55925,1,P10,0,0,0
1,0.81228,0,P10,1,0,0
1,0.83351,1,P10,1,0,0
1,0.57449,1,P10,0,0,0
1,0.72912,1,P10,1,0,0
1,0.62419,1,P10,1,0,0
1,0.64917,1,P10,0,0,0
1,0.67007,1,P10,0,0,0
1,0.65097,1,P10,1,0,0
1,1.0241,1,P10,1,0,0
1,0.5369,1,P10,0,0,0
1,0.61576,1,P10,1,0,0
1,0.74125,1,P10,1,0,0
1,0.50061,1,P10,0,0,0
1,0.51944,1,P10,0,0,0
1,0.58268,1,P10,0,0,0
1,0.69402,1,P10,1,0,0
1,0.65092,1,P10,1,0,0
1,0.65202,1,P10,0,0,0
1,0.58532,1,P10,1,0,0
1,0.68068,1,P10,0,0,0
1,0.79335,1,P10,1,0,0
1,0.58619,1,P10,0,0,0
1,0.62499,1,P10,0,0,0
1,0.74399,1,P10,1,0,0
1,0.60863,1,P10,1,0,0
1,0.61382,1,P10,0,0,0
1,0.48698,1,P10,0,0,0
1,0.55962,1,P10,0,0,0
1,0.62683,0,P10,1,0,0
1,0.77971,1,P10,1,0,0
1,0.76909,1,P10,1,0,0
1,0.58634,1,P10,0,0,0
1,0.58495,1,P10,0,0,0
1,0.63229,1,P10,1,0,0
1,0.82746,1,P10,1,0,0
1,0.71257,1,P10,0,0,0
1,0.68592,1,P10,0,0,0
1,0.64519,1,P10,0,0,0
1,0.66871,1,P10,1,0,0
1,0.56946,1,P10,0,0,0
1,0.54828,1,P10,0,0,0
1,0.68117,1,P10,0,0,0
1,0.96803,1,P10,1,0,0
1,0.71519,1,P10,1,0,0
1,0.62645,1,P10,0,0,0
1,0.70174,1,P10,1,0,0
1,0.64687,1,P10,0,0,0
1,0.58806,1,P10,0,0,0
1,0.54496,1,P10,0,0,0
1,0.77171,1,P10,1,0,0
1,0.59471,1,P10,1,0,0
2,0.66798,1,P10,1,1,1
2,0.63074,1,P10,1,1,0
2,0.6037,1,P10,1,1,0
2,0.53101,1,P10,0,1,0
2,0.64592,1,P10,1,1,0
2,0.64345,1,P10,1,1,0
2,0.56421,1,P10,0,1,0
2,0.61912,1,P10,1,1,0
2,0.78816,1,P10,1,1,0
2,0.7374,1,P10,1,1,0
2,0.52016,1,P10,0,1,0
2,0.69667,1,P10,0,1,0
2,0.55392,1,P10,0,1,0
2,0.57475,1,P10,1,1,0
2,0.69196,1,P10,1,1,0
2,0.58483,1,P10,0,1,0
2,0.66769,1,P10,1,1,0
2,0.5867,1,P10,1,1,0
2,0.59574,1,P10,0,1,0
2,0.58472,1,P10,0,1,0
2,0.66148,1,P10,1,1,0
2,0.78629,1,P10,1,1,0
2,0.54763,1,P10,0,1,0
2,0.59445,1,P10,1,1,0
2,0.65571,1,P10,1,1,0
2,0.63902,1,P10,0,1,0
2,0.69781,1,P10,0,1,0
2,0.72907,1,P10,0,1,0
2,0.67249,1,P10,1,1,0
2,0.62931,1,P10,1,1,0
2,0.58269,1,P10,0,1,0
2,0.64376,1,P10,1,1,0
2,0.57916,1,P10,0,1,0
2,0.66784,1,P10,1,1,0
2,0.58056,1,P10,0,1,0
2,0.57142,1,P10,0,1,0
2,0.72235,1,P10,1,1,0
2,0.73108,1,P10,1,1,0
2,0.61653,1,P10,0,1,0
2,0.69758,1,P10,0,1,0
2,0.53008,1,P10,0,1,0
2,0.7571,1,P10,1,1,0
2,0.68646,1,P10,1,1,0
2,0.69957,1,P10,1,1,0
2,1.1088,1,P10,0,1,0
2,0.52341,1,P10,0,1,0
2,0.90672,1,P10,1,1,0
2,0.81388,1,P10,1,1,0
2,0.62701,1,P10,0,1,0
2,0.57653,1,P10,0,1,0
2,0.65563,1,P10,0,1,0
2,0.81502,1,P10,1,1,0
2,0.58782,1,P10,0,1,0
2,0.98259,1,P10,0,1,0
2,0.61975,1,P10,0,1,0
2,0.78662,1,P10,1,1,0
2,0.70982,1,P10,1,1,0
2,0.661,1,P10,0,1,0
2,0.71231,1,P10,1,1,0
2,0.6253,1,P10,0,1,0
2,0.6947,1,P10,0,1,0
2,0.66756,1,P10,0,1,0
2,0.88626,1,P10,1,1,0
2,0.91727,1,P10,1,1,0
3,0.79523,1,P10,1,1,1
3,0.58998,1,P10,0,1,0
3,0.53713,1,P10,0,1,0
3,0.65996,1,P10,1,1,0
3,0.65892,1,P10,1,1,0
3,0.54753,1,P10,0,1,0
3,0.59038,1,P10,1,1,0
3,0.66339,1,P10,0,1,0
3,0.65838,1,P10,0,1,0
3,0.68172,1,P10,0,1,0
3,0.70052,1,P10,1,1,0
3,0.7712,1,P10,1,1,0
3,0.75204,1,P10,1,1,0
3,1.017,1,P10,0,1,0
3,0.53577,1,P10,0,1,0
3,0.63232,1,P10,1,1,0
3,0.67123,1,P10,1,1,0
3,0.56605,1,P10,1,1,0
3,0.59911,1,P10,0,1,0
3,0.72194,1,P10,1,1,0
3,0.75464,1,P10,1,1,0
3,0.55951,1,P10,1,1,0
3,0.70284,1,P10,0,1,0
3,0.76996,1,P10,1,1,0
3,0.66533,1,P10,1,1,0
3,0.58037,1,P10,1,1,0
3,0.5774,1,P10,0,1,0
3,0.54847,1,P10,0,1,0
3,0.67583,1,P10,0,1,0
3,0.69454,1,P10,1,1,0
3,0.76985,1,P10,1,1,0
3,0.72122,1,P10,1,1,0
3,0.56787,1,P10,0,1,0
3,0.56888,1,P10,0,1,0
3,0.66013,1,P10,0,1,0
3,0.66734,1,P10,1,1,0
3,0.76644,1,P10,1,1,0
3,0.6617,1,P10,1,1,0
3,0.56309,1,P10,0,1,0
3,0.6841,1,P10,1,1,0
3,0.77492,1,P10,0,1,0
3,0.70188,1,P10,0,1,0
3,0.65249,1,P10,0,1,0
3,0.72518,1,P10,1,1,0
3,0.97184,1,P10,0,1,0
3,1.2528,1,P10,1,1,0
3,0.76561,1,P10,1,1,0
3,1.1309,1,P10,1,1,0
3,0.68608,1,P10,0,1,0
3,0.57345,1,P10,0,1,0
3,0.68013,1,P10,0,1,0
3,0.71746,1,P10,1,1,0
3,0.75435,1,P10,0,1,0
3,0.69102,1,P10,0,1,0
3,0.64577,1,P10,1,1,0
3,0.76102,1,P10,1,1,0
3,0.61401,1,P10,0,1,0
3,0.693,1,P10,1,1,0
3,0.55606,1,P10,0,1,0
3,0.69261,1,P10,0,1,0
3,0.65368,1,P10,1,1,0
3,0.59511,1,P10,0,1,0
3,0.85581,1,P10,0,1,0
3,0.83255,1,P10,1,1,0
4,0.8746,1,P10,1,1,1
4,0.74985,1,P10,1,1,0
4,0.53483,1,P10,0,1,0
4,0.64625,1,P10,0,1,0
4,0.69527,1,P10,1,1,0
4,0.62856,1,P10,1,1,0
4,0.50124,1,P10,0,1,0
4,0.87651,1,P10,0,1,0
4,0.69543,1,P10,0,1,0
4,0.69489,1,P10,1,1,0
4,0.67351,1,P10,0,1,0
4,0.68886,1,P10,1,1,0
4,0.61558,1,P10,1,1,0
4,0.57411,1,P10,0,1,0
4,0.6273,1,P10,1,1,0
4,0.57659,1,P10,0,1,0
4,0.62534,0,P10,1,1,0
4,1.5048,1,P10,1,1,0
4,0.70534,1,P10,0,1,0
4,0.83658,1,P10,1,1,0
4,0.66333,1,P10,1,1,0
4,0.61051,1,P10,0,1,0
4,0.61756,1,P10,1,1,0
4,0.6562,1,P10,1,1,0
4,0.65725,1,P10,1,1,0
4,0.59811,1,P10,0,1,0
4,0.70944,1,P10,1,1,0
4,0.78417,1,P10,1,1,0
4,0.57903,1,P10,0,1,0
4,0.63194,1,P10,0,1,0
4,0.58879,1,P10,0,1,0
4,0.5795,1,P10,1,1,0
4,0.85204,1,P10,1,1,0
4,0.65081,1,P10,1,1,0
4,0.6859,1,P10,0,1,0
4,0.5487,1,P10,0,1,0
4,0.60003,1,P10,1,1,0
4,0.75317,1,P10,1,1,0
4,0.59011,1,P10,0,1,0
4,0.64918,1,P10,0,1,0
4,0.63384,1,P10,1,1,0
4,0.78671,1,P10,1,1,0
4,0.60207,1,P10,0,1,0
4,0.49705,1,P10,0,1,0
4,0.55824,1,P10,0,1,0
4,0.62506,1,P10,1,1,0
4,0.6459,1,P10,1,1,0
4,0.61696,1,P10,1,1,0
4,0.55641,1,P10,0,1,0
4,0.54299,1,P10,0,1,0
4,0.62628,1,P10,0,1,0
4,0.63116,1,P10,1,1,0
4,0.58589,1,P10,0,1,0
4,0.61063,1,P10,0,1,0
4,0.68759,1,P10,0,1,0
4,0.6381,1,P10,1,1,0
4,0.5853,1,P10,0,1,0
4,0.67059,1,P10,0,1,0
4,0.69976,1,P10,1,1,0
4,0.65717,1,P10,1,1,0
4,0.76384,1,P10,1,1,0
4,0.59061,1,P10,0,1,0
4,0.64118,1,P10,0,1,0
4,1.0445,1,P10,1,1,0
1,1.4885,1,P11,1,0,1
1,1.0434,1,P11,1,0,0
1,0.72821,1,P11,1,0,0
1,0.50353,1,P11,0,0,0
1,0.96266,1,P11,1,0,0
1,1.1999,1,P11,1,0,0
1,0.73659,1,P11,0,0,0
1,0.65549,1,P11,1,0,0
1,1.4406,1,P11,1,0,0
1,0.70993,1,P11,1,0,0
1,0.6365,1,P11,0,0,0
1,0.59715,1,P11,0,0,0
1,0.51041,1,P11,0,0,0
1,0.95526,1,P11,1,0,0
1,0.86438,1,P11,1,0,0
1,0.50929,1,P11,0,0,0
1,0.70414,1,P11,1,0,0
1,0.72718,1,P11,1,0,0
1,0.60817,1,P11,0,0,0
1,0.49324,1,P11,0,0,0
1,0.63414,1,P11,1,0,0
1,0.88692,1,P11,1,0,0
1,0.53586,1,P11,0,0,0
1,0.65494,1,P11,1,0,0
1,1.0681,1,P11,1,0,0
1,0.53958,1,P11,0,0,0
1,0.63041,1,P11,0,0,0
1,0.50962,1,P11,0,0,0
1,0.86895,0,P11,1,0,0
1,0.77784,1,P11,1,0,0
1,0.68307,1,P11,0,0,0
1,0.70401,1,P11,1,0,0
1,0.59973,1,P11,0,0,0
1,0.93615,1,P11,1,0,0
1,0.51304,1,P11,0,0,0
1,0.62406,1,P11,0,0,0
1,0.90297,1,P11,1,0,0
1,1.0876,1,P11,1,0,0
1,0.68491,1,P11,0,0,0
1,0.62999,1,P11,0,0,0
1,0.54262,1,P11,0,0,0
1,1.1138,1,P11,1,0,0
1,1.0189,1,P11,1,0,0
1,0.91216,1,P11,1,0,0
1,0.64923,1,P11,0,0,0
1,0.55186,1,P11,0,0,0
1,0.91129,1,P11,1,0,0
1,0.81058,1,P11,1,0,0
1,0.5357,1,P11,0,0,0
1,0.62883,1,P11,0,0,0
1,0.62832,1,P11,0,0,0
1,0.63554,1,P11,1,0,0
1,0.64834,1,P11,0,0,0
1,0.40331,1,P11,0,0,0
1,0.66408,1,P11,0,0,0
1,0.74301,1,P11,1,0,0
1,0.83418,1,P11,1,0,0
1,0.58569,1,P11,0,0,0
1,0.73286,1,P11,1,0,0
1,0.46978,1,P11,0,0,0
1,0.45906,1,P11,0,0,0
1,0.54402,1,P11,0,0,0
1,0.80298,0,P11,1,0,0
1,0.79376,1,P11,1,0,0
3,0.7819,1,P11,1,1,1
3,0.585,1,P11,0,1,0
3,0.574,1,P11,0,1,0
3,0.60688,1,P11,0,1,0
3,0.93421,1,P11,1,1,0
3,1.0068,1,P11,1,1,0
3,0.76579,1,P11,1,1,0
3,0.65876,1,P11,0,1,0
3,0.65743,1,P11,0,1,0
3,0.64029,1,P11,0,1,0
3,0.99701,1,P11,1,1,0
3,0.87641,1,P11,1,1,0
3,0.54567,1,P11,0,1,0
3,0.54838,1,P11,0,1,0
3,0.73337,1,P11,1,1,0
3,0.70001,1,P11,1,1,0
3,0.55283,1,P11,0,1,0
3,0.98357,1,P11,1,1,0
3,0.56243,1,P11,0,1,0
3,0.53893,1,P11,0,1,0
3,1.0101,1,P11,1,1,0
3,0.87726,1,P11,1,1,0
3,0.81858,1,P11,1,1,0
3,0.538,1,P11,0,1,0
3,0.50309,1,P11,0,1,0
3,0.82001,1,P11,1,1,0
3,0.61864,1,P11,1,1,0
3,0.74384,1,P11,1,1,0
3,0.61663,1,P11,0,1,0
3,0.54382,1,P11,0,1,0
3,0.78912,1,P11,1,1,0
3,0.78851,1,P11,1,1,0
4,0.61769,1,P11,0,1,1
4,0.62109,1,P11,0,1,0
4,0.83571,1,P11,1,1,0
4,0.65057,1,P11,1,1,0
4,0.58356,1,P11,0,1,0
4,0.83015,1,P11,1,1,0
4,0.62276,1,P11,0,1,0
4,0.68201,1,P11,0,1,0
4,0.78896,1,P11,1,1,0
4,0.72378,1,P11,1,1,0
4,0.58893,1,P11,0,1,0
4,0.50168,1,P11,0,1,0
4,0.77227,1,P11,1,1,0
4,0.53896,1,P11,0,1,0
4,0.56765,1,P11,0,1,0
4,0.64702,1,P11,0,1,0
4,0.88606,1,P11,1,1,0
4,1.4089,1,P11,1,1,0
4,0.53541,1,P11,0,1,0
4,0.70282,1,P11,0,1,0
4,0.54603,1,P11,0,1,0
4,0.97516,1,P11,1,1,0
4,0.57798,1,P11,0,1,0
4,0.62313,1,P11,1,1,0
4,0.67151,1,P11,0,1,0
4,0.70253,1,P11,1,1,0
4,1.2076,1,P11,1,1,0
4,0.99037,1,P11,1,1,0
4,0.54748,1,P11,0,1,0
4,0.95034,1,P11,1,1,0
4,0.99313,1,P11,1,1,0
4,0.85584,1,P11,1,1,0
5,0.83765,1,P11,1,1,1
5,0.50898,1,P11,0,1,0
5,0.48378,1,P11,0,1,0
5,0.68888,1,P11,1,1,0
5,0.54347,1,P11,0,1,0
5,1.0389,1,P11,1,1,0
5,0.8098,1,P11,1,1,0
5,0.7428,1,P11,1,1,0
5,0.88425,1,P11,0,1,0
5,0.54144,1,P11,0,1,0
5,0.71646,1,P11,0,1,0
5,0.79384,1,P11,1,1,0
5,0.65476,1,P11,1,1,0
5,0.63146,1,P11,0,1,0
5,0.6803,1,P11,0,1,0
5,0.85529,1,P11,0,1,0
5,0.94234,1,P11,1,1,0
5,0.92537,1,P11,1,1,0
5,0.8386,1,P11,0,1,0
5,0.61396,1,P11,0,1,0
5,0.8608,1,P11,1,1,0
5,0.7895,1,P11,0,1,0
5,0.60034,1,P11,0,1,0
5,0.73921,1,P11,1,1,0
5,0.7544,1,P11,0,1,0
5,0.6175,1,P11,0,1,0
5,0.65081,1,P11,0,1,0
5,1.1398,1,P11,1,1,0
5,0.74454,1,P11,0,1,0
5,0.93735,1,P11,1,1,0
5,0.85592,1,P11,1,1,0
5,0.55296,1,P11,0,1,0
6,1.1556,1,P11,1,1,1
6,1.0707,1,P11,0,1,0
6,0.67781,0,P11,1,1,0
6,0.9814,1,P11,1,1,0
6,0.66039,1,P11,0,1,0
6,0.57924,1,P11,0,1,0
6,0.74798,1,P11,1,1,0
6,0.58553,1,P11,0,1,0
6,0.59198,1,P11,0,1,0
6,0.62699,1,P11,0,1,0
6,0.68392,1,P11,1,1,0
6,0.58635,1,P11,0,1,0
6,0.59928,1,P11,0,1,0
6,1.048,1,P11,1,1,0
6,0.76914,1,P11,1,1,0
6,0.59799,1,P11,0,1,0
6,0.60291,1,P11,0,1,0
6,1.3681,1,P11,1,1,0
6,0.73533,1,P11,0,1,0
6,0.95464,1,P11,1,1,0
6,0.68966,1,P11,0,1,0
6,0.63064,1,P11,0,1,0
6,0.76514,1,P11,1,1,0
6,0.97251,1,P11,1,1,0
6,0.61545,1,P11,0,1,0
6,0.6428,1,P11,0,1,0
6,0.91218,1,P11,1,1,0
6,1.0786,1,P11,1,1,0
6,0.98543,1,P11,1,1,0
6,0.75248,1,P11,0,1,0
6,0.87375,1,P11,1,1,0
6,0.92019,1,P11,1,1,0
1,1.1402,1,P12,1,0,1
1,0.80396,1,P12,1,0,0
1,1.1472,1,P12,0,0,0
1,1.1025,1,P12,1,0,0
1,1.3398,1,P12,1,0,0
1,1.1962,1,P12,0,0,0
1,1.2113,1,P12,1,0,0
1,0.9324,1,P12,1,0,0
1,1.2338,1,P12,1,0,0
1,0.76057,1,P12,0,0,0
1,0.71324,1,P12,0,0,0
1,0.65803,1,P12,0,0,0
1,0.91913,1,P12,1,0,0
1,1.1564,1,P12,1,0,0
1,0.87315,1,P12,0,0,0
1,1.0281,1,P12,1,0,0
1,1.107,1,P12,1,0,0
1,0.76405,1,P12,0,0,0
1,0.75294,1,P12,0,0,0
1,0.7579,1,P12,1,0,0
1,1.0669,1,P12,1,0,0
1,0.70785,1,P12,0,0,0
1,1.3947,1,P12,1,0,0
1,1.2961,1,P12,1,0,0
1,0.77539,1,P12,0,0,0
1,0.62622,1,P12,0,0,0
1,0.69755,1,P12,0,0,0
1,1.1207,1,P12,1,0,0
1,0.98163,1,P12,1,0,0
1,0.67074,1,P12,0,0,0
1,1.1318,1,P12,1,0,0
1,0.8674,1,P12,0,0,0
1,0.83598,1,P12,1,0,0
1,0.75685,1,P12,0,0,0
1,0.6757,1,P12,0,0,0
1,0.91465,1,P12,1,0,0
1,1.2036,1,P12,1,0,0
1,0.62482,1,P12,0,0,0
1,0.68195,1,P12,0,0,0
1,0.63454,1,P12,0,0,0
1,1.1017,1,P12,1,0,0
1,1.1427,1,P12,1,0,0
1,0.93202,1,P12,1,0,0
1,0.70099,1,P12,0,0,0
1,0.70765,1,P12,0,0,0
1,1.2271,1,P12,1,0,0
1,0.94238,1,P12,1,0,0
1,0.79553,1,P12,0,0,0
1,0.69675,1,P12,0,0,0
1,0.73593,1,P12,0,0,0
1,1.3512,1,P12,1,0,0
1,0.68432,1,P12,0,0,0
1,0.69503,1,P12,0,0,0
1,0.61993,1,P12,0,0,0
1,0.98681,1,P12,1,0,0
1,1.2301,1,P12,1,0,0
1,0.67744,1,P12,0,0,0
1,1.1286,1,P12,1,0,0
1,0.65774,1,P12,0,0,0
1,0.75069,1,P12,0,0,0
1,0.67585,1,P12,0,0,0
1,1.1986,1,P12,1,0,0
1,1.1495,1,P12,1,0,0
3,0.69811,1,P12,0,1,1
3,1.1469,1,P12,1,1,0
3,0.81157,1,P12,0,1,0
3,0.68249,1,P12,0,1,0
3,0.90544,1,P12,1,1,0
3,0.77827,1,P12,1,1,0
3,0.50363,1,P12,0,1,0
3,0.59264,1,P12,0,1,0
3,0.72131,1,P12,0,1,0
3,0.99652,1,P12,1,1,0
3,0.78149,1,P12,1,1,0
3,1.1469,1,P12,1,1,0
3,0.64393,1,P12,0,1,0
3,0.60229,1,P12,0,1,0
3,1.1698,1,P12,1,1,0
3,1.029,1,P12,1,1,0
3,0.80216,1,P12,0,1,0
3,0.65559,1,P12,0,1,0
3,0.63077,1,P12,0,1,0
3,0.91035,1,P12,1,1,0
3,0.75514,1,P12,0,1,0
3,0.74973,1,P12,0,1,0
3,0.78683,1,P12,0,1,0
3,1.0098,1,P12,1,1,0
3,0.91686,1,P12,1,1,0
3,0.70011,1,P12,0,1,0
3,1.0073,1,P12,1,1,0
3,0.74455,1,P12,0,1,0
3,0.80566,1,P12,0,1,0
3,0.92243,1,P12,0,1,0
3,0.77323,1,P12,1,1,0
3,1.0443,1,P12,1,1,0
4,0.82616,1,P12,1,1,1
4,0.91694,1,P12,1,1,0
4,0.84177,1,P12,1,1,0
4,1.1211,1,P12,0,1,0
4,0.82045,1,P12,1,1,0
4,0.99373,1,P12,1,1,0
4,0.5784,1,P12,0,1,0
4,1.0733,1,P12,1,1,0
4,0.90649,1,P12,1,1,0
4,0.88754,1,P12,1,1,0
4,0.67029,1,P12,0,1,0
4,0.63885,1,P12,0,1,0
4,0.93598,1,P12,0,1,0
4,1.053,1,P12,1,1,0
4,0.89009,1,P12,1,1,0
4,0.65511,1,P12,0,1,0
4,0.85783,1,P12,1,1,0
4,1.0489,1,P12,1,1,0
4,0.75401,1,P12,0,1,0
4,0.71096,1,P12,0,1,0
4,1.0356,1,P12,1,1,0
4,0.99251,1,P12,1,1,0
4,0.69783,1,P12,0,1,0
4,1.0965,1,P12,1,1,0
4,1.1579,1,P12,1,1,0
4,0.76516,1,P12,0,1,0
4,0.59999,1,P12,0,1,0
4,0.67136,1,P12,0,1,0
4,1.1268,1,P12,1,1,0
4,0.97142,1,P12,1,1,0
4,0.58081,1,P12,0,1,0
4,0.91386,1,P12,1,1,0
5,0.85429,1,P12,1,1,1
5,0.60137,1,P12,0,1,0
5,0.75004,1,P12,0,1,0
5,0.74342,1,P12,0,1,0
5,0.84646,1,P12,1,1,0
5,0.78323,1,P12,1,1,0
5,0.79839,1,P12,1,1,0
5,0.72317,1,P12,0,1,0
5,0.66586,1,P12,0,1,0
5,0.60848,1,P12,0,1,0
5,0.91741,1,P12,1,1,0
5,0.95673,1,P12,1,1,0
5,0.66597,1,P12,0,1,0
5,0.66073,1,P12,0,1,0
5,0.89377,1,P12,1,1,0
5,1.0124,1,P12,1,1,0
5,0.53732,1,P12,0,1,0
5,0.96008,1,P12,1,1,0
5,0.45884,1,P12,0,1,0
5,0.69944,1,P12,0,1,0
5,0.85842,1,P12,1,1,0
5,0.78148,1,P12,1,1,0
5,0.81073,1,P12,1,1,0
5,0.93028,1,P12,0,1,0
5,0.57538,1,P12,0,1,0
5,0.9325,1,P12,1,1,0
5,1.2589,1,P12,1,1,0
5,1.1602,1,P12,1,1,0
5,0.72883,1,P12,0,1,0
5,0.62426,1,P12,0,1,0
5,0.82946,1,P12,1,1,0
5,0.88475,1,P12,1,1,0
6,0.60596,1,P12,0,1,1
6,0.67314,1,P12,0,1,0
6,1.0957,1,P12,1,1,0
6,1.0627,1,P12,1,1,0
6,0.60369,1,P12,0,1,0
6,0.8021,1,P12,1,1,0
6,0.70707,1,P12,0,1,0
6,0.66206,1,P12,0,1,0
6,0.94487,1,P12,1,1,0
6,0.79994,1,P12,1,1,0
6,0.64887,1,P12,0,1,0
6,0.66588,1,P12,0,1,0
6,0.78438,1,P12,1,1,0
6,0.56684,1,P12,0,1,0
6,0.74783,1,P12,0,1,0
6,0.78718,1,P12,0,1,0
6,0.86603,1,P12,1,1,0
6,0.989,1,P12,1,1,0
6,0.70753,1,P12,0,1,0
6,0.92301,1,P12,0,1,0
6,0.8941,1,P12,0,1,0
6,0.87526,1,P12,1,1,0
6,0.61398,1,P12,0,1,0
6,1.1472,1,P12,1,1,0
6,0.71564,1,P12,0,1,0
6,0.82665,1,P12,1,1,0
6,0.9158,1,P12,1,1,0
6,1.1785,1,P12,1,1,0
6,0.63937,1,P12,0,1,0
6,0.69053,1,P12,1,1,0
6,1.3892,1,P12,1,1,0
6,0.93177,1,P12,1,1,0
9,0.7917,1,P12,1,1,1
9,0.74282,1,P12,0,1,0
9,0.61383,1,P12,0,1,0
9,0.91477,1,P12,1,1,0
9,0.69763,1,P12,0,1,0
9,0.97696,1,P12,1,1,0
9,0.57181,1,P12,1,1,0
9,0.72905,1,P12,1,1,0
9,0.64617,1,P12,0,1,0
9,0.59128,1,P12,0,1,0
9,0.9666,1,P12,0,1,0
9,0.99586,1,P12,1,1,0
9,0.76071,1,P12,1,1,0
9,0.85732,1,P12,0,1,0
9,0.58616,1,P12,0,1,0
9,0.64933,1,P12,0,1,0
9,1.0405,1,P12,1,1,0
9,0.9915,1,P12,1,1,0
9,0.90461,1,P12,0,1,0
9,0.70373,1,P12,0,1,0
9,0.83076,1,P12,1,1,0
9,0.76774,1,P12,0,1,0
9,0.79425,1,P12,0,1,0
9,0.75732,1,P12,1,1,0
9,0.68459,1,P12,0,1,0
9,1.2275,1,P12,0,1,0
9,0.64468,1,P12,0,1,0
9,0.74955,1,P12,1,1,0
9,0.67461,1,P12,0,1,0
9,0.89917,1,P12,1,1,0
9,1.2579,1,P12,1,1,0
9,0.77114,1,P12,0,1,0
1,1.1707,1,P13,1,0,1
1,1.0694,1,P13,1,0,0
1,0.86639,1,P13,1,0,0
1,0.72967,1,P13,0,0,0
1,0.74881,0,P13,1,0,0
1,1.4819,1,P13,1,0,0
1,0.92271,1,P13,0,0,0
1,0.74572,1,P13,1,0,0
1,0.94682,1,P13,1,0,0
1,0.81592,1,P13,1,0,0
1,0.83856,1,P13,0,0,0
1,0.88727,1,P13,0,0,0
1,0.81651,1,P13,0,0,0
1,1.0292,1,P13,1,0,0
1,0.94657,1,P13,1,0,0
1,1.0314,1,P13,0,0,0
1,1.2023,1,P13,1,0,0
1,1.0412,1,P13,1,0,0
1,0.77828,1,P13,0,0,0
1,0.9754,1,P13,0,0,0
1,0.86801,1,P13,1,0,0
1,0.96896,1,P13,1,0,0
1,0.72196,1,P13,0,0,0
1,1.1849,0,P13,1,0,0
1,1.1501,1,P13,1,0,0
1,0.69375,1,P13,0,0,0
1,0.75239,1,P13,0,0,0
1,0.95172,1,P13,0,0,0
1,1.135,1,P13,1,0,0
1,0.88386,1,P13,1,0,0
1,0.90886,1,P13,0,0,0
1,1.1461,1,P13,1,0,0
1,0.81756,1,P13,0,0,0
1,1.0264,1,P13,1,0,0
1,0.88307,1,P13,0,0,0
1,0.62598,1,P13,0,0,0
1,1.009,1,P13,1,0,0
1,0.81784,1,P13,1,0,0
1,0.9271,1,P13,0,0,0
1,0.76014,1,P13,0,0,0
1,0.74497,1,P13,0,0,0
1,0.892,1,P13,1,0,0
1,0.997,1,P13,1,0,0
1,1.1702,1,P13,1,0,0
1,0.71543,1,P13,0,0,0
1,0.92992,1,P13,0,0,0
1,1.1293,1,P13,1,0,0
1,0.90834,1,P13,1,0,0
1,0.80968,1,P13,0,0,0
1,1.047,1,P13,0,0,0
1,0.86243,1,P13,0,0,0
1,1.0457,1,P13,1,0,0
1,0.74639,1,P13,0,0,0
1,0.70919,1,P13,0,0,0
1,0.7303,1,P13,0,0,0
1,1.1132,1,P13,1,0,0
1,1.1163,1,P13,1,0,0
1,0.81968,1,P13,0,0,0
1,0.91884,1,P13,1,0,0
1,0.75182,1,P13,0,0,0
1,0.81302,1,P13,0,0,0
1,0.78605,1,P13,0,0,0
1,0.89274,1,P13,1,0,0
1,0.81173,1,P13,1,0,0
3,1.3404,1,P13,1,1,1
3,1.117,1,P13,0,1,0
3,0.68403,1,P13,0,1,0
3,0.875,1,P13,1,1,0
3,0.79573,1,P13,1,1,0
3,0.87291,1,P13,0,1,0
3,0.72219,1,P13,0,1,0
3,1.1867,1,P13,0,1,0
3,1.0138,1,P13,1,1,0
3,1.279,1,P13,1,1,0
3,1.2122,1,P13,1,1,0
3,0.90126,1,P13,0,1,0
3,0.81198,1,P13,0,1,0
3,1.2673,1,P13,1,1,0
3,1.5106,1,P13,1,1,0
3,1.2358,1,P13,0,1,0
3,0.80105,1,P13,0,1,0
3,0.92038,1,P13,0,1,0
3,1.1195,1,P13,1,1,0
3,0.98037,1,P13,0,1,0
3,0.81529,1,P13,0,1,0
3,0.8521,1,P13,0,1,0
3,0.99529,1,P13,1,1,0
3,1.3343,1,P13,1,1,0
3,0.97368,1,P13,0,1,0
3,1.0888,1,P13,1,1,0
3,0.77795,1,P13,0,1,0
3,0.83928,1,P13,0,1,0
3,0.87603,1,P13,0,1,0
3,1.0788,1,P13,1,1,0
3,0.83772,1,P13,1,1,0
4,1.1854,1,P13,1,1,1
4,0.80611,1,P13,1,1,0
4,0.82941,1,P13,0,1,0
4,0.72048,1,P13,1,1,0
4,1.0538,1,P13,1,1,0
4,0.95853,1,P13,0,1,0
4,1.1335,1,P13,1,1,0
4,1.0146,1,P13,1,1,0
4,1.4439,1,P13,1,1,0
4,0.9546,1,P13,0,1,0
4,0.77928,1,P13,0,1,0
4,0.7882,1,P13,0,1,0
4,0.92105,1,P13,1,1,0
4,0.85427,1,P13,1,1,0
4,0.66725,1,P13,0,1,0
4,0.93396,1,P13,1,1,0
4,0.93312,1,P13,1,1,0
4,0.76614,1,P13,0,1,0
4,0.78703,1,P13,0,1,0
4,0.79177,1,P13,1,1,0
4,1.2767,1,P13,1,1,0
4,0.83773,1,P13,0,1,0
4,0.88491,1,P13,1,1,0
4,1.2179,1,P13,1,1,0
4,0.87341,1,P13,0,1,0
4,0.75614,1,P13,0,1,0
4,0.74769,1,P13,0,1,0
4,0.96286,1,P13,1,1,0
4,1.1439,1,P13,1,1,0
4,0.84896,1,P13,0,1,0
4,0.84622,1,P13,1,1,0
5,1.3822,1,P13,1,1,1
5,0.66538,1,P13,0,1,0
5,0.71822,1,P13,0,1,0
5,0.69531,1,P13,0,1,0
5,0.89456,1,P13,1,1,0
5,1.0714,1,P13,1,1,0
5,0.94236,1,P13,1,1,0
5,0.85124,1,P13,0,1,0
5,1.1299,1,P13,0,1,0
5,0.68846,1,P13,0,1,0
5,1.1095,1,P13,1,1,0
5,0.76473,1,P13,1,1,0
5,0.76193,1,P13,0,1,0
5,0.78877,1,P13,0,1,0
5,0.84576,1,P13,1,1,0
5,0.98057,1,P13,1,1,0
5,0.72943,1,P13,0,1,0
5,1.104,1,P13,1,1,0
5,0.81067,1,P13,0,1,0
5,1.0514,1,P13,0,1,0
5,1.5337,1,P13,1,1,0
5,0.93882,1,P13,1,1,0
5,0.88234,1,P13,0,1,0
5,0.70356,1,P13,0,1,0
5,0.91643,1,P13,1,1,0
5,0.92303,1,P13,1,1,0
5,1.0322,1,P13,1,1,0
5,1.033,1,P13,0,1,0
5,0.8804,1,P13,0,1,0
5,1.0856,1,P13,1,1,0
5,0.83691,1,P13,1,1,0
6,0.7408,1,P13,0,1,1
6,0.69608,1,P13,0,1,0
6,1.2786,1,P13,1,1,0
6,0.74955,1,P13,1,1,0
6,0.8185,1,P13,0,1,0
6,0.76123,1,P13,1,1,0
6,0.79402,1,P13,0,1,0
6,0.76499,1,P13,0,1,0
6,0.91987,1,P13,1,1,0
6,1.3508,1,P13,1,1,0
6,0.91193,1,P13,0,1,0
6,0.76857,1,P13,0,1,0
6,0.98306,1,P13,1,1,0
6,0.68589,1,P13,0,1,0
6,0.8349,1,P13,0,1,0
6,1.1141,1,P13,0,1,0
6,1.0489,1,P13,1,1,0
6,1.4278,1,P13,1,1,0
6,0.73042,1,P13,0,1,0
6,0.92979,1,P13,0,1,0
6,0.69287,1,P13,0,1,0
6,1.2821,1,P13,1,1,0
6,0.66902,1,P13,0,1,0
6,0.96175,1,P13,1,1,0
6,0.88262,1,P13,0,1,0
6,1.2817,1,P13,1,1,0
6,0.93871,1,P13,1,1,0
6,1.0414,0,P13,1,1,0
6,0.75824,1,P13,0,1,0
6,1.2748,1,P13,1,1,0
