blockNum,rt,response,subj_idx,conflict,ics,starting_trial
1,0.61152607,1,1,0,0,1
1,0.728039903,1,1,1,0,0
1,0.48186729,1,1,0,0,0
1,0.512289846,1,1,0,0,0
1,0.656878387,1,1,1,0,0
1,0.502638644,1,1,0,0,0
1,0.565256923,1,1,0,0,0
1,0.773905046,1,1,1,0,0
1,0.762323956,1,1,1,0,0
1,0.573146107,1,1,0,0,0
1,0.669488932,1,1,0,0,0
1,0.765114952,1,1,1,0,0
1,0.763110194,1,1,1,0,0
1,0.551976907,1,1,0,0,0
1,0.528183521,1,1,0,0,0
1,0.697124377,1,1,1,0,0
1,0.612632549,1,1,0,0,0
1,0.656318579,1,1,1,0,0
1,0.532745286,1,1,0,0,0
1,0.570379294,1,1,0,0,0
1,0.652159533,1,1,1,0,0
1,0.569254133,1,1,0,0,0
1,0.662183922,1,1,1,0,0
1,0.569300359,1,1,0,0,0
1,0.667915028,1,1,0,0,0
1,0.650413416,1,1,1,0,0
1,0.576677764,1,1,0,0,0
1,0.886327276,1,1,1,0,0
1,0.546863656,1,1,0,0,0
1,0.578523762,1,1,0,0,0
1,0.851185098,1,1,1,0,0
1,0.586011233,1,1,0,0,0
1,0.699520753,1,1,1,0,0
1,0.65790886,1,1,1,0,0
1,0.534063194,1,1,0,0,0
1,0.77526048,1,1,1,0,0
1,0.53953694,1,1,0,0,0
1,0.61867654,1,1,1,0,0
1,0.509555868,1,1,0,0,0
1,0.570114907,1,1,0,0,0
1,0.688512668,1,1,1,0,0
1,0.502349215,1,1,0,0,0
1,0.555621441,1,1,0,0,0
1,0.651441008,1,1,1,0,0
1,0.784398346,0,1,1,0,0
1,0.592623652,1,1,0,0,0
1,1.025693062,1,1,1,0,0
1,0.686349251,1,1,1,0,0
1,0.584400376,1,1,0,0,0
1,0.582110595,1,1,1,0,0
1,0.538748865,1,1,0,0,0
1,0.743487774,1,1,1,0,0
1,0.551722661,1,1,0,0,0
1,0.630881718,1,1,1,0,0
1,0.533270408,1,1,0,0,0
1,0.805232396,1,1,1,0,0
1,0.741547502,1,1,1,0,0
1,0.594729258,1,1,0,0,0
1,0.847590672,1,1,1,0,0
1,1.013468195,1,1,1,0,0
1,0.561886631,1,1,0,0,0
1,0.654678648,1,1,1,0,0
1,0.650742562,1,1,1,0,0
1,0.540863166,1,1,0,0,0
1,0.609640355,1,1,1,0,0
1,0.578649623,1,1,1,0,0
1,0.547790432,1,1,0,0,0
1,0.604780393,1,1,1,0,0
1,0.804118235,1,1,1,0,0
1,0.56740844,1,1,0,0,0
1,0.751781811,1,1,1,0,0
1,0.65923948,1,1,0,0,0
1,0.602049511,1,1,0,0,0
1,0.62681686,1,1,1,0,0
1,0.540251392,1,1,0,0,0
1,0.506263612,1,1,0,0,0
1,0.703412919,1,1,1,0,0
1,0.69407071,1,1,0,0,0
1,0.607600041,1,1,0,0,0
1,0.674779646,1,1,1,0,0
1,0.832859647,1,1,1,0,0
1,0.65986837,1,1,0,0,0
1,0.63155191,1,1,0,0,0
1,0.746386713,1,1,1,0,0
1,0.566041392,1,1,0,0,0
1,0.581476859,1,1,0,0,0
1,0.704201229,1,1,1,0,0
1,0.564183667,1,1,0,0,0
1,0.718115559,1,1,1,0,0
1,0.539704839,1,1,0,0,0
1,0.662725875,1,1,1,0,0
1,0.653392108,1,1,0,0,0
1,0.755166282,1,1,1,0,0
1,0.649490695,1,1,0,0,0
1,0.654983458,1,1,0,0,0
1,0.706454712,1,1,1,0,0
1,0.575722689,1,1,0,0,0
1,0.853163109,1,1,1,0,0
1,0.682396156,1,1,1,0,0
1,0.628529757,1,1,0,0,0
1,0.697364159,1,1,1,0,0
1,0.519657211,1,1,0,0,0
1,0.64321153,1,1,1,0,0
1,0.566310561,1,1,0,0,0
1,0.634158759,1,1,1,0,0
1,0.594924407,1,1,1,0,0
1,0.56806712,1,1,0,0,0
1,0.596249224,1,1,0,0,0
1,0.634709194,1,1,1,0,0
1,0.547465722,1,1,0,0,0
1,0.658760266,1,1,1,0,0
1,0.786402177,1,1,0,0,0
1,0.543693461,1,1,0,0,0
1,0.584600179,1,1,1,0,0
1,0.630180125,1,1,0,0,0
1,0.670536017,1,1,0,0,0
1,0.688134517,1,1,1,0,0
1,0.623787019,1,1,0,0,0
1,0.641276481,1,1,1,0,0
1,0.56986023,1,1,0,0,0
1,0.774964723,1,1,1,0,0
1,0.573769164,1,1,0,0,0
1,1.001332195,1,1,1,0,0
1,0.559086301,1,1,0,0,0
1,0.608606981,1,1,1,0,0
1,0.659225285,1,1,1,0,0
1,0.578778251,1,1,0,0,0
1,1.020300334,1,1,1,0,0
1,0.72707509,1,1,1,0,0
1,0.667364667,1,1,0,0,0
1,0.594956263,1,1,1,0,0
1,0.559774832,1,1,0,0,0
1,0.604338317,1,1,1,0,0
1,0.660463512,1,1,1,0,0
1,0.546410849,1,1,0,0,0
1,0.684904547,1,1,1,0,0
1,0.776460978,1,1,0,0,0
1,0.619957374,1,1,1,0,0
1,0.969390831,1,1,1,0,0
1,0.617949866,1,1,0,0,0
1,0.786216791,1,1,1,0,0
1,0.755412691,1,1,1,0,0
1,0.548971192,1,1,0,0,0
1,0.822994891,1,1,1,0,0
1,0.648715477,1,1,1,1,1
1,0.622923777,1,1,1,1,0
1,0.787004769,1,1,0,1,0
1,0.723535571,1,1,1,1,0
1,0.779256986,1,1,1,1,0
1,0.649669619,1,1,0,1,0
1,0.6098506,1,1,1,1,0
1,0.779783903,1,1,0,1,0
1,0.585328094,1,1,1,1,0
1,0.605122252,1,1,0,1,0
1,0.928704794,1,1,1,1,0
1,0.690741873,1,1,1,1,0
1,0.577911085,1,1,0,1,0
1,0.633339164,1,1,1,1,0
1,0.617711921,1,1,0,1,0
1,0.770520678,1,1,0,1,0
1,0.67961612,1,1,1,1,0
1,0.72395252,1,1,1,1,0
1,0.531759959,1,1,0,1,0
1,0.677984082,1,1,1,1,0
1,0.666028218,1,1,1,1,0
1,0.579693696,1,1,0,1,0
1,0.694005693,1,1,1,1,0
1,0.562119148,1,1,0,1,0
1,0.657494525,1,1,1,1,0
1,0.590190727,1,1,0,1,0
1,0.631294729,1,1,1,1,0
1,0.68563691,1,1,1,1,0
1,0.550703102,1,1,0,1,0
1,0.796808436,1,1,1,1,0
1,0.52928992,1,1,0,1,0
1,0.879310793,1,1,1,1,0
1,0.558436818,1,1,0,1,0
1,0.538143474,1,1,0,1,0
1,0.668003343,1,1,1,1,0
1,0.563489072,1,1,0,1,0
1,0.600191933,1,1,1,1,0
1,0.836535642,1,1,1,1,0
1,0.569028862,1,1,0,1,0
1,0.624135254,1,1,1,1,0
1,0.537493987,1,1,0,1,0
1,0.690913776,1,1,1,1,0
1,0.746458181,1,1,1,1,0
1,0.519648512,1,1,0,1,0
1,0.59420223,1,1,1,1,0
1,0.615428325,1,1,1,1,0
1,0.5273358,1,1,0,1,0
1,0.60473638,1,1,1,1,0
1,0.498551772,1,1,0,1,0
1,0.789344031,1,1,1,1,0
1,0.485841899,1,1,0,1,0
1,0.655258892,1,1,1,1,0
1,0.887400752,1,1,1,1,0
1,0.490724973,1,1,0,1,0
1,0.794515555,1,1,1,1,0
1,0.635793777,1,1,1,1,0
1,0.607425349,1,1,0,1,0
1,0.627849978,1,1,0,1,0
1,0.635671573,1,1,1,1,0
1,0.586860127,1,1,1,1,0
1,0.529793816,1,1,0,1,0
1,0.535488102,1,1,0,1,0
1,0.728219919,1,1,1,1,0
1,0.496609537,1,1,0,1,0
1,0.922596237,1,1,1,1,0
1,0.592711461,1,1,0,1,0
1,0.82929923,1,1,1,1,0
1,0.5454238,1,1,0,1,0
1,0.591133391,1,1,1,1,0
1,0.557250622,1,1,0,1,0
1,0.565962611,1,1,1,1,0
1,0.520712376,1,1,0,1,0
1,0.61848993,1,1,1,1,0
1,0.505702313,1,1,0,1,0
1,0.609869478,1,1,1,1,0
1,0.512096869,1,1,0,1,0
1,0.537328021,1,1,0,1,0
1,0.62997641,1,1,1,1,0
1,0.638768492,1,1,1,1,0
1,0.529472694,1,1,0,1,0
1,0.477018072,1,1,0,1,0
1,0.644781008,1,1,1,1,0
1,0.545803208,1,1,0,1,0
1,0.536696022,1,1,0,1,0
1,0.666053006,1,1,1,1,0
1,0.603150295,1,1,0,1,0
1,0.882635113,1,1,1,1,0
1,0.539627113,1,1,0,1,0
1,0.544251751,1,1,0,1,0
1,0.574709396,1,1,1,1,0
1,0.480377274,1,1,0,1,0
1,0.474175174,1,1,0,1,0
1,0.721645177,1,1,1,1,0
1,0.461083116,1,1,0,1,0
1,0.458496214,1,1,0,1,0
1,0.673836277,1,1,1,1,0
1,0.445847125,1,1,0,1,0
1,0.448739131,1,1,0,1,0
1,0.788005604,1,1,1,1,0
1,0.669832607,1,1,1,1,0
1,0.489358214,1,1,0,1,0
1,0.532841116,1,1,0,1,0
1,0.54164587,0,1,1,1,0
1,0.498018457,1,1,0,1,0
1,0.598710955,1,1,1,1,0
1,0.548184606,1,1,0,1,0
1,0.514594908,1,1,0,1,0
1,0.610272574,1,1,1,1,0
1,0.577565711,1,1,0,1,0
1,0.687530981,1,1,1,1,0
1,0.522420162,1,1,0,1,0
1,0.517981564,1,1,0,1,0
1,0.621618395,1,1,1,1,0
1,0.62915164,1,1,1,1,0
1,0.51980575,1,1,0,1,0
1,0.727829642,1,1,1,1,0
1,0.536418447,1,1,0,1,0
1,0.708015788,1,1,1,1,0
1,0.53819075,1,1,0,1,0
1,0.650617726,1,1,1,1,0
1,0.496811601,1,1,0,1,0
1,0.770926475,1,1,1,1,0
1,0.573699256,1,1,0,1,0
1,0.972676009,1,1,1,1,0
1,0.602158652,1,1,0,1,0
1,0.637933037,1,1,1,1,0
1,0.583214263,1,1,0,1,0
1,0.574839164,1,1,0,1,0
1,0.656081756,1,1,1,1,0
1,0.571441074,1,1,0,1,0
1,0.738618349,1,1,1,1,0
1,0.534494816,1,1,0,1,0
1,0.73912919,1,1,1,1,0
1,0.571823505,1,1,0,1,0
1,0.60484974,1,1,0,1,0
1,0.721736009,1,1,1,1,0
1,0.666920601,1,1,1,1,0
1,0.524534504,1,1,0,1,0
1,0.657895552,1,1,1,1,0
1,0.53759576,1,1,0,1,0
1,0.530869028,1,1,0,1,0
1,0.81142499,1,1,1,1,0
1,0.616664321,1,1,1,1,0
1,0.546862383,1,1,0,1,0
1,0.771057573,1,2,0,0,1
1,0.761734623,1,2,1,0,0
1,0.633196722,1,2,0,0,0
1,0.622231685,1,2,0,0,0
1,0.921733248,1,2,1,0,0
1,0.502566039,1,2,0,0,0
1,0.582576423,1,2,0,0,0
1,0.87542599,1,2,1,0,0
1,1.362233056,1,2,1,0,0
1,0.521471252,1,2,0,0,0
1,0.674267885,1,2,0,0,0
1,0.741530347,1,2,1,0,0
1,0.901317895,1,2,1,0,0
1,0.499001728,1,2,0,0,0
1,0.553222162,1,2,0,0,0
1,0.834276295,1,2,1,0,0
1,0.514401478,1,2,0,0,0
1,0.769178472,1,2,1,0,0
1,0.558550989,1,2,0,0,0
1,0.607517869,1,2,0,0,0
1,0.565101282,1,2,1,0,0
1,0.576097066,1,2,0,0,0
1,0.762676082,1,2,1,0,0
1,0.721798952,1,2,0,0,0
1,0.456164873,1,2,0,0,0
1,0.775210746,1,2,1,0,0
1,0.539386152,1,2,0,0,0
1,0.759829997,1,2,1,0,0
1,0.57060526,1,2,0,0,0
1,0.484267707,1,2,0,0,0
1,0.902581569,1,2,1,0,0
1,0.653582626,1,2,0,0,0
1,0.827446432,1,2,1,0,0
1,0.913005388,1,2,1,0,0
1,0.756352684,1,2,0,0,0
1,0.796846559,1,2,1,0,0
1,0.554726414,1,2,0,0,0
1,0.800654517,1,2,1,0,0
1,0.786256861,1,2,0,0,0
1,0.501210254,1,2,0,0,0
1,0.797532919,1,2,1,0,0
1,0.682922595,1,2,0,0,0
1,0.730009915,1,2,0,0,0
1,0.798756165,1,2,1,0,0
1,1.280154238,1,2,1,0,0
1,0.69045925,1,2,0,0,0
1,0.841993251,1,2,1,0,0
1,0.951724755,1,2,1,0,0
1,0.588781106,1,2,0,0,0
1,0.813769626,1,2,1,0,0
1,0.557902261,1,2,0,0,0
1,0.852386172,1,2,1,0,0
1,0.752013097,1,2,0,0,0
1,0.955859976,1,2,1,0,0
1,0.635069616,1,2,0,0,0
1,0.838185624,1,2,1,0,0
1,0.870188905,1,2,1,0,0
1,0.742715993,1,2,0,0,0
1,0.80622203,1,2,1,0,0
1,0.87156524,1,2,1,0,0
1,0.80947185,1,2,0,0,0
1,0.820325816,1,2,1,0,0
1,0.73538885,1,2,1,0,0
1,0.656297934,1,2,0,0,0
1,1.08006183,1,2,1,0,0
1,0.748788901,1,2,1,0,0
1,0.669823616,1,2,0,0,0
1,1.004685517,1,2,1,0,0
1,1.227422735,1,2,1,0,0
1,0.723958052,1,2,0,0,0
1,0.905670488,1,2,1,0,0
1,0.599228232,1,2,0,0,0
1,0.626178779,1,2,0,0,0
1,0.769642667,1,2,1,0,0
1,0.693992642,1,2,0,0,0
1,0.531284675,1,2,0,0,0
1,0.915056782,1,2,1,0,0
1,0.760100178,1,2,0,0,0
1,0.683583378,1,2,0,0,0
1,1.082771815,1,2,1,0,0
1,0.934487321,1,2,1,0,0
1,1.103040778,1,2,0,0,0
1,0.733753528,1,2,0,0,0
1,1.14147299,1,2,1,0,0
1,0.634997885,1,2,0,0,0
1,0.712033504,1,2,0,0,0
1,0.96082139,1,2,1,0,0
1,0.588797741,1,2,0,0,0
1,0.950761513,1,2,1,0,0
1,0.611600264,1,2,0,0,0
1,1.026648828,1,2,1,0,0
1,0.580585666,1,2,0,0,0
1,0.896132692,1,2,1,0,0
1,0.680965237,1,2,0,0,0
1,0.739098941,1,2,0,0,0
1,0.854229042,1,2,1,0,0
1,0.556600858,1,2,0,0,0
1,1.074625296,1,2,1,0,0
1,0.891131098,1,2,1,0,0
1,0.71809063,1,2,0,0,0
1,1.082554983,1,2,1,0,0
1,0.645727932,1,2,0,0,0
1,1.258764939,1,2,1,0,0
1,0.651418494,1,2,0,0,0
1,0.881357096,1,2,1,0,0
1,1.203195162,1,2,1,0,0
1,0.826720018,1,2,0,0,0
1,0.63643799,1,2,0,0,0
1,0.84290779,1,2,1,0,0
1,0.567466465,1,2,0,0,0
1,0.89932129,1,2,1,0,0
1,0.588617354,1,2,0,0,0
1,0.541472051,1,2,0,0,0
1,0.80596099,1,2,1,0,0
1,0.627641491,1,2,0,0,0
1,0.560972965,1,2,0,0,0
1,0.885030386,1,2,1,0,0
1,0.548278486,1,2,0,0,0
1,0.862535756,1,2,1,0,0
1,0.721108681,1,2,0,0,0
1,0.852851147,1,2,1,0,0
1,0.594443508,1,2,0,0,0
1,1.258477558,1,2,1,0,0
1,0.80647138,1,2,0,0,0
1,0.9683846,1,2,1,0,0
1,0.947199811,1,2,1,0,0
1,0.719877658,1,2,0,0,0
1,1.014060955,1,2,1,0,0
1,0.979506953,1,2,1,0,0
1,0.625928372,1,2,0,0,0
1,0.784613294,1,2,1,0,0
1,0.723897104,1,2,0,0,0
1,0.766913098,1,2,1,0,0
1,0.68633694,1,2,1,0,0
1,0.796806214,1,2,0,0,0
1,0.895105565,1,2,1,0,0
1,0.536746166,1,2,0,0,0
1,1.132215679,1,2,1,0,0
1,0.78110755,1,2,1,0,0
1,0.585788914,1,2,0,0,0
1,0.885373941,1,2,1,0,0
1,0.956035787,1,2,1,0,0
1,0.978134621,1,2,0,0,0
1,0.980750852,1,2,1,0,0
1,0.721772128,1,2,1,1,1
1,0.831336357,1,2,1,1,0
1,0.577356889,1,2,0,1,0
1,0.989230742,1,2,1,1,0
1,1.178474702,1,2,1,1,0
1,0.620514366,1,2,0,1,0
1,0.591398186,1,2,1,1,0
1,0.693053377,1,2,0,1,0
1,0.756138029,1,2,1,1,0
1,0.790384172,1,2,0,1,0
1,0.861341508,1,2,1,1,0
1,0.952775633,1,2,1,1,0
1,0.715268787,1,2,0,1,0
1,0.728781308,1,2,1,1,0
1,0.664804211,1,2,0,1,0
1,0.627802215,1,2,0,1,0
1,0.87131635,1,2,1,1,0
1,0.95573773,1,2,1,1,0
1,0.584906972,1,2,0,1,0
1,0.903556652,1,2,1,1,0
1,0.765232246,1,2,1,1,0
1,0.964673673,1,2,0,1,0
1,0.951502961,1,2,1,1,0
1,1.214445988,1,2,0,1,0
1,1.053744492,1,2,1,1,0
1,0.691756599,1,2,0,1,0
1,0.727662264,1,2,1,1,0
1,0.964867431,1,2,1,1,0
1,0.51450899,1,2,0,1,0
1,0.850457154,1,2,1,1,0
1,0.693715591,1,2,0,1,0
1,0.890543729,1,2,1,1,0
1,0.677815764,1,2,0,1,0
1,0.668470949,1,2,0,1,0
1,0.889932261,1,2,1,1,0
1,0.695837998,1,2,0,1,0
1,0.776663805,1,2,1,1,0
1,0.828454254,1,2,1,1,0
1,0.684658384,1,2,0,1,0
1,0.913465851,1,2,1,1,0
1,0.896858962,1,2,0,1,0
1,0.861131537,1,2,1,1,0
1,0.867244637,1,2,1,1,0
1,0.655245001,1,2,0,1,0
1,0.952447649,1,2,1,1,0
1,0.75935146,1,2,1,1,0
1,0.748318662,1,2,0,1,0
1,0.710729953,1,2,1,1,0
1,0.700376872,1,2,0,1,0
1,1.000776933,1,2,1,1,0
1,0.531782747,1,2,0,1,0
1,0.870685281,1,2,1,1,0
1,0.723232659,1,2,1,1,0
1,0.635022187,1,2,0,1,0
1,0.961939016,1,2,1,1,0
1,0.744697712,1,2,1,1,0
1,0.652304695,1,2,0,1,0
1,0.649142453,1,2,0,1,0
1,1.411489679,1,2,1,1,0
1,0.816533824,1,2,1,1,0
1,0.612396711,1,2,0,1,0
1,0.600107765,1,2,0,1,0
1,1.056192175,1,2,1,1,0
1,0.876968187,1,2,0,1,0
1,0.896560679,1,2,1,1,0
1,0.668841636,1,2,0,1,0
1,1.249888422,1,2,1,1,0
1,0.601021932,1,2,0,1,0
1,0.767231611,1,2,1,1,0
1,0.595331752,1,2,0,1,0
1,0.788228738,1,2,1,1,0
1,0.609177911,1,2,0,1,0
1,0.832216668,1,2,1,1,0
1,0.562627969,1,2,0,1,0
1,0.987430656,1,2,1,1,0
1,0.527540325,1,2,0,1,0
1,0.647190373,1,2,0,1,0
1,0.878546377,1,2,1,1,0
1,0.880024498,1,2,1,1,0
1,0.916056818,1,2,0,1,0
1,0.61341666,1,2,0,1,0
1,0.892235537,1,2,1,1,0
1,0.6762032,1,2,0,1,0
1,0.599682274,1,2,0,1,0
1,0.775368763,1,2,1,1,0
1,0.690749663,1,2,0,1,0
1,1.058298637,1,2,1,1,0
1,0.70895295,1,2,0,1,0
1,0.577515166,1,2,0,1,0
1,0.603079529,1,2,1,1,0
1,0.630272781,1,2,0,1,0
1,0.636143377,1,2,0,1,0
1,0.960757999,1,2,1,1,0
1,0.587803426,1,2,0,1,0
1,0.538826855,1,2,0,1,0
1,0.820922277,1,2,1,1,0
1,0.485839063,1,2,0,1,0
1,0.693473086,1,2,0,1,0
1,0.853245366,1,2,1,1,0
1,0.862642496,1,2,1,1,0
1,0.537194899,1,2,0,1,0
1,0.606548689,1,2,0,1,0
1,1.02007119,1,2,1,1,0
1,0.579876792,1,2,0,1,0
1,0.738730722,1,2,1,1,0
1,0.642826966,1,2,0,1,0
1,0.583995646,1,2,0,1,0
1,0.744667459,1,2,1,1,0
1,0.587738557,1,2,0,1,0
1,0.928708273,1,2,1,1,0
1,0.562989679,1,2,0,1,0
1,0.524758936,1,2,0,1,0
1,0.960444847,1,2,1,1,0
1,0.882182785,1,2,1,1,0
1,0.569170831,1,2,0,1,0
1,0.814790953,1,2,1,1,0
1,0.543515658,1,2,0,1,0
1,0.751149699,1,2,1,1,0
1,0.641966586,1,2,0,1,0
1,0.7834886,1,2,1,1,0
1,0.592634749,1,2,0,1,0
1,0.735451807,1,2,1,1,0
1,0.653550156,1,2,0,1,0
1,0.682450826,0,2,1,1,0
1,0.643841986,1,2,0,1,0
1,0.767234434,1,2,1,1,0
1,0.555263892,1,2,0,1,0
1,0.532717404,1,2,0,1,0
1,0.782414688,1,2,1,1,0
1,0.563912041,1,2,0,1,0
1,0.822607784,1,2,1,1,0
1,0.534496804,1,2,0,1,0
1,1.405393962,1,2,1,1,0
1,0.795950704,1,2,0,1,0
1,0.562865786,1,2,0,1,0
1,0.889966371,1,2,1,1,0
1,0.802027439,1,2,1,1,0
1,0.58012895,1,2,0,1,0
1,0.697274085,1,2,1,1,0
1,0.654920645,1,2,0,1,0
1,0.526659595,1,2,0,1,0
1,0.714476626,1,2,1,1,0
1,1.212188729,1,2,1,1,0
1,0.816839731,1,2,0,1,0
1,1.074823233,1,3,1,0,1
1,0.554596589,1,3,1,0,0
1,0.738924235,1,3,0,0,0
1,0.77336943,1,3,1,0,0
1,0.944875216,1,3,1,0,0
1,0.666079533,1,3,0,0,0
1,0.778903786,1,3,1,0,0
1,0.602139518,1,3,0,0,0
1,0.703343629,1,3,1,0,0
1,0.515897301,1,3,0,0,0
1,0.959980867,1,3,1,0,0
1,0.72115561,1,3,1,0,0
1,0.688903495,1,3,0,0,0
1,0.666211827,1,3,1,0,0
1,0.643791936,1,3,0,0,0
1,0.498980828,1,3,0,0,0
1,0.632739051,1,3,1,0,0
1,0.834148901,0,3,1,0,0
1,0.752738473,1,3,0,0,0
1,1.170837982,1,3,1,0,0
1,0.772051672,1,3,1,0,0
1,0.624065202,1,3,0,0,0
1,0.965112695,1,3,1,0,0
1,0.662768091,1,3,0,0,0
1,0.969209188,1,3,1,0,0
1,0.583862939,1,3,0,0,0
1,0.689717506,1,3,1,0,0
1,0.807098573,1,3,1,0,0
1,0.634336308,1,3,0,0,0
1,1.006331593,1,3,1,0,0
1,0.620852253,1,3,0,0,0
1,1.095448631,1,3,1,0,0
1,0.548379003,1,3,0,0,0
1,0.654411249,1,3,0,0,0
1,0.900280167,1,3,1,0,0
1,0.585793243,1,3,0,0,0
1,1.041845016,1,3,1,0,0
1,0.76276742,1,3,1,0,0
1,0.784465014,1,3,0,0,0
1,0.942294959,1,3,1,0,0
1,0.620458926,1,3,0,0,0
1,0.850451452,1,3,1,0,0
1,0.665492876,1,3,1,0,0
1,0.563442198,1,3,0,0,0
1,0.84463127,1,3,1,0,0
1,0.762765161,0,3,1,0,0
1,0.593706268,1,3,0,0,0
1,0.896923234,1,3,1,0,0
1,0.63287087,1,3,0,0,0
1,0.840911131,1,3,1,0,0
1,0.699856881,1,3,0,0,0
1,0.754635557,1,3,1,0,0
1,0.807763702,1,3,1,0,0
1,0.58426867,1,3,0,0,0
1,0.889779896,1,3,1,0,0
1,0.81083293,1,3,1,0,0
1,0.659310399,1,3,0,0,0
1,0.580951794,1,3,0,0,0
1,0.838560514,1,3,1,0,0
1,0.701336146,1,3,1,0,0
1,0.64680932,1,3,0,0,0
1,0.558232745,1,3,0,0,0
1,0.781136061,1,3,1,0,0
1,0.671023982,1,3,0,0,0
1,1.15533918,1,3,1,0,0
1,0.620203226,1,3,0,0,0
1,0.93176575,1,3,1,0,0
1,0.620683384,1,3,0,0,0
1,0.87775626,1,3,1,0,0
1,0.635320891,1,3,0,0,0
1,0.790557823,1,3,1,0,0
1,0.652275789,1,3,0,0,0
1,0.799206735,1,3,1,0,0
1,0.70878206,1,3,0,0,0
1,0.922597665,1,3,1,0,0
1,0.733627643,1,3,0,0,0
1,0.61115954,1,3,0,0,0
1,0.810043337,1,3,1,0,0
1,0.845705129,1,3,1,0,0
1,0.711020392,1,3,0,0,0
1,0.579423783,1,3,0,0,0
1,0.941707914,1,3,1,0,0
1,0.690126782,1,3,0,0,0
1,0.604946626,1,3,0,0,0
1,0.635375177,1,3,1,0,0
1,0.59693217,1,3,0,0,0
1,0.908927648,1,3,1,0,0
1,0.884357313,1,3,0,0,0
1,0.597526497,1,3,0,0,0
1,0.989151047,1,3,1,0,0
1,0.50937683,1,3,0,0,0
1,0.858356598,1,3,0,0,0
1,1.062800117,1,3,1,0,0
1,0.5610424,1,3,0,0,0
1,0.673436827,1,3,0,0,0
1,0.859795925,1,3,1,0,0
1,0.560808019,1,3,0,0,0
1,0.592184303,1,3,0,0,0
1,0.857583926,1,3,1,0,0
1,0.759843515,1,3,1,0,0
1,0.605698086,1,3,0,0,0
1,0.685246629,1,3,0,0,0
1,0.899434939,1,3,1,0,0
1,0.725636071,1,3,0,0,0
1,0.794439514,1,3,1,0,0
1,0.747538314,1,3,0,0,0
1,0.549119417,1,3,0,0,0
1,1.260356327,1,3,1,0,0
1,0.676620121,1,3,0,0,0
1,0.894012781,1,3,1,0,0
1,0.534072737,1,3,0,0,0
1,0.479654891,1,3,0,0,0
1,0.705488038,1,3,1,0,0
1,0.905499096,1,3,1,0,0
1,0.638890581,1,3,0,0,0
1,0.930445506,1,3,1,0,0
1,0.665931404,1,3,0,0,0
1,0.686048601,1,3,1,0,0
1,0.589661259,1,3,0,0,0
1,0.766898704,1,3,1,0,0
1,0.6836286,1,3,0,0,0
1,0.761142471,1,3,1,0,0
1,0.647197628,1,3,0,0,0
1,1.037571457,1,3,1,0,0
1,0.624366715,1,3,0,0,0
1,0.825548039,1,3,1,0,0
1,0.594242674,1,3,0,0,0
1,0.587295606,1,3,0,0,0
1,1.082400728,1,3,1,0,0
1,0.66608783,1,3,0,0,0
1,0.910843666,1,3,1,0,0
1,0.624993037,1,3,0,0,0
1,0.870909727,1,3,1,0,0
1,0.546233867,1,3,0,0,0
1,0.512490615,1,3,0,0,0
1,0.936178544,1,3,1,0,0
1,0.794828815,1,3,1,0,0
1,0.610330451,1,3,0,0,0
1,0.789495148,1,3,1,0,0
1,0.766571932,1,3,0,0,0
1,0.569848812,1,3,0,0,0
1,0.832132864,1,3,1,0,0
1,1.168945467,1,3,1,0,0
1,0.517791385,1,3,0,0,0
1,0.640911654,1,3,0,1,1
1,0.817913131,1,3,1,1,0
1,0.444461877,1,3,0,1,0
1,0.521509076,1,3,0,1,0
1,0.64993112,0,3,1,1,0
1,0.608835515,1,3,0,1,0
1,0.549809951,1,3,0,1,0
1,1.100154835,1,3,1,1,0
1,0.8377255,1,3,1,1,0
1,0.538572371,1,3,0,1,0
1,0.676067186,1,3,0,1,0
1,0.815729455,1,3,1,1,0
1,0.828688844,1,3,1,1,0
1,0.596769935,1,3,0,1,0
1,0.523082611,1,3,0,1,0
1,0.79511467,1,3,1,1,0
1,0.634266097,1,3,0,1,0
1,0.723352259,1,3,1,1,0
1,0.553705296,1,3,0,1,0
1,0.570379469,1,3,0,1,0
1,0.765140647,1,3,1,1,0
1,0.593534504,1,3,0,1,0
1,0.829189588,1,3,1,1,0
1,0.687192204,1,3,0,1,0
1,0.569642947,1,3,0,1,0
1,0.734545158,1,3,1,1,0
1,0.56364123,1,3,0,1,0
1,0.879128436,1,3,1,1,0
1,0.57015348,1,3,0,1,0
1,0.567228567,1,3,0,1,0
1,0.756946998,0,3,1,1,0
1,0.597894808,1,3,0,1,0
1,0.597088569,1,3,1,1,0
1,1.097015667,1,3,1,1,0
1,0.530449026,1,3,0,1,0
1,0.813548923,1,3,1,1,0
1,0.469916423,1,3,0,1,0
1,0.873185158,1,3,1,1,0
1,0.53496905,1,3,0,1,0
1,0.508285827,1,3,0,1,0
1,0.750088819,1,3,1,1,0
1,0.615601594,1,3,0,1,0
1,0.637216053,1,3,0,1,0
1,0.746161162,1,3,1,1,0
1,0.927795521,1,3,1,1,0
1,0.498105273,1,3,0,1,0
1,0.925912324,1,3,1,1,0
1,0.797765154,1,3,1,1,0
1,0.478280337,1,3,0,1,0
1,0.683816308,1,3,1,1,0
1,0.558719287,1,3,0,1,0
1,0.827481026,1,3,1,1,0
1,0.549874176,1,3,0,1,0
1,0.893796254,1,3,1,1,0
1,0.444344748,1,3,0,1,0
1,0.893195821,1,3,1,1,0
1,0.835431209,1,3,1,1,0
1,0.603972992,1,3,0,1,0
1,0.782299223,1,3,1,1,0
1,0.849943113,1,3,1,1,0
1,0.62246327,1,3,0,1,0
1,0.943492251,1,3,1,1,0
1,0.728072348,1,3,1,1,0
1,0.544798212,1,3,0,1,0
1,0.771878341,1,3,1,1,0
1,0.736266476,1,3,1,1,0
1,0.558290276,1,3,0,1,0
1,0.633199554,1,3,1,1,0
1,0.802800423,1,3,1,1,0
1,0.708894791,1,3,0,1,0
1,0.717095763,1,3,1,1,0
1,0.584211058,1,3,0,1,0
1,0.515754988,1,3,0,1,0
1,0.681149662,0,3,1,1,0
1,0.60935043,1,3,0,1,0
1,0.526170587,1,3,0,1,0
1,1.016334232,1,3,1,1,0
1,0.557957967,1,3,0,1,0
1,0.543782442,1,3,0,1,0
1,0.716956304,1,3,1,1,0
1,0.758675468,1,3,1,1,0
1,0.747332226,1,3,0,1,0
1,1.032430145,1,3,0,1,0
1,0.868335659,1,3,1,1,0
1,0.625350783,1,3,0,1,0
1,0.552656618,1,3,0,1,0
1,0.82649711,1,3,1,1,0
1,0.589090981,1,3,0,1,0
1,0.754113281,1,3,1,1,0
1,0.540913615,1,3,0,1,0
1,0.686574695,1,3,1,1,0
1,0.517688901,1,3,0,1,0
1,0.752255329,1,3,1,1,0
1,0.566611359,1,3,0,1,0
1,0.590979114,1,3,0,1,0
1,0.667818117,1,3,1,1,0
1,0.609321685,1,3,0,1,0
1,0.56686593,0,3,1,1,0
1,0.826195755,1,3,1,1,0
1,0.650164368,1,3,0,1,0
1,0.680209934,1,3,1,1,0
1,0.731848387,1,3,0,1,0
1,1.000558065,1,3,1,1,0
1,0.602290283,1,3,0,1,0
1,0.865159035,1,3,1,1,0
1,0.599713454,1,3,1,1,0
1,0.525120297,1,3,0,1,0
1,0.542588947,1,3,0,1,0
1,0.758416638,1,3,1,1,0
1,0.438394639,1,3,0,1,0
1,0.692146091,1,3,1,1,0
1,0.592933111,1,3,0,1,0
1,0.555191066,1,3,0,1,0
1,0.659688462,1,3,1,1,0
1,0.66427195,1,3,0,1,0
1,0.567989916,1,3,0,1,0
1,0.962469888,1,3,1,1,0
1,0.581272466,1,3,0,1,0
1,0.615546596,1,3,1,1,0
1,0.538277887,1,3,0,1,0
1,1.090827549,1,3,1,1,0
1,0.704103454,1,3,0,1,0
1,1.075231313,1,3,1,1,0
1,0.668642121,1,3,0,1,0
1,1.030111024,1,3,1,1,0
1,0.82228965,1,3,1,1,0
1,0.665355126,1,3,0,1,0
1,0.906585989,1,3,1,1,0
1,0.775562791,1,3,1,1,0
1,0.644144729,1,3,0,1,0
1,0.745641528,1,3,1,1,0
1,0.524141837,1,3,0,1,0
1,0.743978852,1,3,1,1,0
1,0.683289858,1,3,1,1,0
1,0.549882229,1,3,0,1,0
1,0.811211711,1,3,1,1,0
1,0.586435549,1,3,0,1,0
1,0.544099029,1,3,1,1,0
1,0.563391908,1,3,1,1,0
1,0.599402189,1,3,0,1,0
1,0.66144652,1,3,1,1,0
1,0.958195356,1,3,1,1,0
1,0.545725489,1,3,0,1,0
1,0.661384188,1,3,1,1,0
1,0.698722684,1,4,0,0,1
1,0.901624665,1,4,1,0,0
1,0.563057559,1,4,0,0,0
1,0.595390923,1,4,0,0,0
1,0.810654194,1,4,1,0,0
1,0.536710259,1,4,0,0,0
1,0.683452418,1,4,0,0,0
1,0.817899041,1,4,1,0,0
1,0.854569076,1,4,1,0,0
1,0.557653294,1,4,0,0,0
1,0.551964747,1,4,0,0,0
1,0.722124857,1,4,1,0,0
1,0.714312926,1,4,1,0,0
1,0.587625999,1,4,0,0,0
1,0.606437729,1,4,0,0,0
1,0.819309742,1,4,1,0,0
1,0.631099177,1,4,0,0,0
1,0.756635369,1,4,1,0,0
1,0.551288837,1,4,0,0,0
1,0.604797464,1,4,0,0,0
1,0.939390024,1,4,1,0,0
1,0.493770446,1,4,0,0,0
1,0.651054274,1,4,1,0,0
1,0.57246968,1,4,0,0,0
1,0.614434366,1,4,0,0,0
1,0.599583941,1,4,1,0,0
1,0.541780164,1,4,0,0,0
1,0.909811021,1,4,1,0,0
1,0.584629763,1,4,0,0,0
1,0.511580397,1,4,0,0,0
1,0.801341802,1,4,1,0,0
1,0.62278102,1,4,0,0,0
1,0.667180215,1,4,1,0,0
1,0.808902029,1,4,1,0,0
1,0.639339609,1,4,0,0,0
1,0.737973073,1,4,1,0,0
1,0.54552997,1,4,0,0,0
1,0.765953145,1,4,1,0,0
1,0.593453304,1,4,0,0,0
1,0.576832708,1,4,0,0,0
1,0.753051656,1,4,1,0,0
1,0.683421924,1,4,0,0,0
1,0.61633133,1,4,0,0,0
1,0.776583029,1,4,1,0,0
1,0.781016897,1,4,1,0,0
1,0.570600344,1,4,0,0,0
1,0.861485719,1,4,1,0,0
1,0.69129757,1,4,1,0,0
1,0.518710727,1,4,0,0,0
1,0.757602144,1,4,1,0,0
1,0.500235114,1,4,0,0,0
1,0.766019203,1,4,1,0,0
1,0.577537675,1,4,0,0,0
1,0.740360247,1,4,1,0,0
1,0.55092358,1,4,0,0,0
1,0.658832911,1,4,1,0,0
1,0.682920908,1,4,1,0,0
1,0.550378593,1,4,0,0,0
1,0.64729826,1,4,1,0,0
1,1.227275307,1,4,1,0,0
1,0.608234625,1,4,0,0,0
1,0.745848442,1,4,1,0,0
1,0.64809274,1,4,1,0,0
1,0.507433689,1,4,0,0,0
1,0.73679896,1,4,1,0,0
1,0.671982891,1,4,1,0,0
1,0.60252268,1,4,0,0,0
1,0.634345047,1,4,1,0,0
1,0.733744342,1,4,1,0,0
1,0.584454377,1,4,0,0,0
1,0.767755534,1,4,1,0,0
1,0.594499068,1,4,0,0,0
1,0.574012145,1,4,0,0,0
1,0.875014557,1,4,1,0,0
1,0.532526571,1,4,0,0,0
1,0.732042613,1,4,0,0,0
1,0.791880829,1,4,1,0,0
1,0.638615029,1,4,0,0,0
1,0.576792343,1,4,0,0,0
1,0.792101317,1,4,1,0,0
1,0.824927061,1,4,1,0,0
1,0.658074121,1,4,0,0,0
1,0.769066556,1,4,0,0,0
1,0.733398156,1,4,1,0,0
1,0.631160374,1,4,0,0,0
1,0.529550583,1,4,0,0,0
1,0.853863979,1,4,1,0,0
1,0.586065898,1,4,0,0,0
1,0.699615748,1,4,1,0,0
1,0.554197149,1,4,0,0,0
1,0.669608955,1,4,1,0,0
1,0.499200046,1,4,0,0,0
1,0.702969083,1,4,1,0,0
1,0.536211168,1,4,0,0,0
1,0.562361526,1,4,0,0,0
1,0.787443793,1,4,1,0,0
1,0.511259176,1,4,0,0,0
1,0.822178978,1,4,1,0,0
1,0.751190914,1,4,1,0,0
1,0.638778086,1,4,0,0,0
1,0.801892023,1,4,1,0,0
1,0.662646111,1,4,0,0,0
1,0.860430831,1,4,1,0,0
1,0.628244041,1,4,0,0,0
1,0.702089736,1,4,1,0,0
1,0.818230604,1,4,1,0,0
1,0.592448098,1,4,0,0,0
1,0.644309963,1,4,0,0,0
1,0.7607835,1,4,1,0,0
1,0.535000905,1,4,0,0,0
1,0.823150431,1,4,1,0,0
1,0.548370502,1,4,0,0,0
1,0.569414385,1,4,0,0,0
1,0.693806869,1,4,1,0,0
1,0.595498026,1,4,0,0,0
1,0.81687957,1,4,0,0,0
1,0.743047856,1,4,1,0,0
1,0.618274452,1,4,0,0,0
1,0.735411541,1,4,1,0,0
1,0.582886301,1,4,0,0,0
1,0.999651068,1,4,1,0,0
1,0.605579478,1,4,0,0,0
1,0.970816056,1,4,1,0,0
1,0.641113277,1,4,0,0,0
1,0.866149121,1,4,1,0,0
1,0.736868298,1,4,1,0,0
1,0.632095722,1,4,0,0,0
1,0.807693977,1,4,1,0,0
1,0.80733272,1,4,1,0,0
1,0.573581232,1,4,0,0,0
1,0.700658757,1,4,1,0,0
1,0.554685467,1,4,0,0,0
1,0.658676155,1,4,1,0,0
1,0.554624795,1,4,1,0,0
1,0.502383892,1,4,0,0,0
1,0.721291284,1,4,1,0,0
1,0.659364249,1,4,0,0,0
1,0.715094638,1,4,1,0,0
1,0.659038353,1,4,1,0,0
1,0.575166543,1,4,0,0,0
1,0.694782247,1,4,1,0,0
1,1.111889115,1,4,1,0,0
1,0.590234722,1,4,0,0,0
1,0.752861064,1,4,1,0,0
1,0.979856893,1,4,1,1,1
1,0.896354485,1,4,1,1,0
1,0.69086955,1,4,0,1,0
1,0.723770548,1,4,1,1,0
1,0.776767407,1,4,1,1,0
1,0.647855919,1,4,0,1,0
1,0.809090629,1,4,1,1,0
1,0.575475216,1,4,0,1,0
1,0.677762653,1,4,1,1,0
1,0.659431156,1,4,0,1,0
1,0.894337848,1,4,1,1,0
1,0.786690444,1,4,1,1,0
1,0.696945706,1,4,0,1,0
1,0.763059152,1,4,1,1,0
1,0.583127124,1,4,0,1,0
1,0.542158824,1,4,0,1,0
1,0.73223588,1,4,1,1,0
1,0.682990848,1,4,1,1,0
1,0.598468221,1,4,0,1,0
1,0.969161917,1,4,1,1,0
1,0.790405965,1,4,1,1,0
1,0.857010115,1,4,0,1,0
1,0.69369446,1,4,1,1,0
1,0.691286832,1,4,0,1,0
1,0.784790255,1,4,1,1,0
1,0.802094492,1,4,0,1,0
1,0.746827265,1,4,1,1,0
1,0.736240848,1,4,1,1,0
1,0.613154501,1,4,0,1,0
1,0.737086688,1,4,1,1,0
1,0.701842529,1,4,0,1,0
1,0.8461338,1,4,1,1,0
1,0.709475037,1,4,0,1,0
1,0.773268612,1,4,0,1,0
1,1.187411882,1,4,1,1,0
1,0.63716153,1,4,0,1,0
1,0.770805479,1,4,1,1,0
1,0.808771884,1,4,1,1,0
1,0.667552286,1,4,0,1,0
1,0.76115202,1,4,1,1,0
1,0.631945664,1,4,0,1,0
1,0.750137298,1,4,1,1,0
1,0.905210056,1,4,1,1,0
1,0.642106861,1,4,0,1,0
1,0.660372042,1,4,1,1,0
1,0.919217914,1,4,1,1,0
1,0.673823148,1,4,0,1,0
1,1.056681938,1,4,1,1,0
1,0.593449296,1,4,0,1,0
1,1.130326502,1,4,1,1,0
1,0.656548638,1,4,0,1,0
1,0.752644541,1,4,1,1,0
1,0.965991322,1,4,1,1,0
1,0.520759992,1,4,0,1,0
1,0.857727119,1,4,1,1,0
1,0.724800114,1,4,1,1,0
1,0.70597329,1,4,0,1,0
1,0.616709202,1,4,0,1,0
1,0.845995102,1,4,1,1,0
1,0.795706338,1,4,1,1,0
1,0.679294738,1,4,0,1,0
1,0.615516634,1,4,0,1,0
1,0.83994589,1,4,1,1,0
1,0.672108467,1,4,0,1,0
1,0.859414015,1,4,1,1,0
1,0.692276592,1,4,0,1,0
1,0.743363006,1,4,1,1,0
1,0.6355271,1,4,0,1,0
1,0.762899615,1,4,1,1,0
1,0.571044596,1,4,0,1,0
1,0.697437668,1,4,1,1,0
1,0.567707246,1,4,0,1,0
1,0.811016358,1,4,1,1,0
1,0.630658328,1,4,0,1,0
1,0.73524912,1,4,1,1,0
1,0.569302534,1,4,0,1,0
1,0.6013353,1,4,0,1,0
1,1.09669736,1,4,1,1,0
1,0.745590729,1,4,1,1,0
1,0.54934463,1,4,0,1,0
1,0.644831287,1,4,0,1,0
1,0.87503992,1,4,1,1,0
1,0.497116602,1,4,0,1,0
1,0.506049876,1,4,0,1,0
1,0.713733302,1,4,1,1,0
1,0.626845056,1,4,0,1,0
1,0.823746445,1,4,1,1,0
1,0.478779629,1,4,0,1,0
1,0.567595652,1,4,0,1,0
1,0.909014554,1,4,1,1,0
1,0.521223558,1,4,0,1,0
1,0.51123354,1,4,0,1,0
1,0.829661357,1,4,1,1,0
1,0.605543865,1,4,0,1,0
1,0.556545102,1,4,0,1,0
1,0.749199393,1,4,1,1,0
1,0.519351225,1,4,0,1,0
1,0.588379253,1,4,0,1,0
1,0.827405145,1,4,1,1,0
1,0.875377681,1,4,1,1,0
1,0.652491203,1,4,0,1,0
1,0.616449358,1,4,0,1,0
1,0.781624323,1,4,1,1,0
1,0.511561014,1,4,0,1,0
1,0.693391987,1,4,1,1,0
1,0.496676869,1,4,0,1,0
1,0.4684475,1,4,0,1,0
1,0.723119417,1,4,1,1,0
1,0.570812911,1,4,0,1,0
1,0.767036585,1,4,1,1,0
1,0.551714178,1,4,0,1,0
1,0.560979034,1,4,0,1,0
1,0.685766133,1,4,1,1,0
1,0.697530438,1,4,1,1,0
1,0.567214477,1,4,0,1,0
1,0.71787902,1,4,1,1,0
1,0.548716644,1,4,0,1,0
1,0.758077933,1,4,1,1,0
1,0.528517076,1,4,0,1,0
1,0.60566577,1,4,1,1,0
1,0.569533644,1,4,0,1,0
1,0.740388403,1,4,1,1,0
1,0.522504452,1,4,0,1,0
1,1.127137519,1,4,1,1,0
1,0.556061515,1,4,0,1,0
1,0.796563606,1,4,1,1,0
1,0.56887363,1,4,0,1,0
1,0.460700114,1,4,0,1,0
1,0.718978703,1,4,1,1,0
1,0.543926171,1,4,0,1,0
1,0.703155743,1,4,1,1,0
1,0.51817391,1,4,0,1,0
1,0.729543266,1,4,1,1,0
1,0.54144529,1,4,0,1,0
1,0.482165715,1,4,0,1,0
1,0.692068929,1,4,1,1,0
1,0.581064262,1,4,1,1,0
1,0.496213908,1,4,0,1,0
1,0.6219955,1,4,1,1,0
1,0.484953758,1,4,0,1,0
1,0.477918828,1,4,0,1,0
1,0.657849107,1,4,1,1,0
1,0.758750019,1,4,1,1,0
1,0.511976473,1,4,0,1,0
1,0.986697223,1,5,1,0,1
1,1.119362174,1,5,1,0,0
1,0.782999787,1,5,0,0,0
1,0.989048751,1,5,1,0,0
1,0.859771588,1,5,1,0,0
1,0.84518238,1,5,0,0,0
1,0.773542459,1,5,1,0,0
1,0.686025774,1,5,0,0,0
1,0.831627599,1,5,1,0,0
1,0.630260271,1,5,0,0,0
1,1.256333211,1,5,1,0,0
1,0.932006345,1,5,1,0,0
1,0.833362167,1,5,0,0,0
1,0.70970146,1,5,1,0,0
1,0.651905964,1,5,0,0,0
1,0.792402171,1,5,0,0,0
1,0.820654255,1,5,1,0,0
1,1.414531647,1,5,1,0,0
1,0.682727267,1,5,0,0,0
1,1.026525854,1,5,1,0,0
1,0.725713891,1,5,1,0,0
1,1.060285406,1,5,0,0,0
1,1.00706289,1,5,1,0,0
1,0.657442915,1,5,0,0,0
1,1.029437823,1,5,1,0,0
1,0.710907107,1,5,0,0,0
1,0.776379913,1,5,1,0,0
1,0.894692491,1,5,1,0,0
1,0.791370736,1,5,0,0,0
1,0.941401115,1,5,1,0,0
1,0.617817782,1,5,0,0,0
1,0.972793009,1,5,1,0,0
1,0.73796795,1,5,0,0,0
1,0.596907918,1,5,0,0,0
1,1.103246271,1,5,1,0,0
1,0.660933052,1,5,0,0,0
1,0.898436252,1,5,1,0,0
1,0.802060131,1,5,1,0,0
1,0.68594068,1,5,0,0,0
1,0.822533431,1,5,1,0,0
1,0.422158499,0,5,0,0,0
1,0.963826587,1,5,1,0,0
1,0.867081749,1,5,1,0,0
1,0.615120228,1,5,0,0,0
1,0.884110665,1,5,1,0,0
1,1.038989832,1,5,1,0,0
1,0.7212811,1,5,0,0,0
1,0.910838675,1,5,1,0,0
1,0.713435855,1,5,0,0,0
1,1.238807406,1,5,1,0,0
1,0.640567845,1,5,0,0,0
1,0.808097087,1,5,1,0,0
1,0.795703567,1,5,1,0,0
1,0.546018202,1,5,0,0,0
1,1.178709562,1,5,1,0,0
1,0.853721954,1,5,1,0,0
1,0.737124691,1,5,0,0,0
1,0.605266874,1,5,0,0,0
1,1.080247674,1,5,1,0,0
1,1.070482057,1,5,1,0,0
1,0.709777758,1,5,0,0,0
1,0.696378529,1,5,0,0,0
1,1.15251665,1,5,1,0,0
1,0.65633815,1,5,0,0,0
1,1.074874947,1,5,1,0,0
1,0.699160736,1,5,0,0,0
1,0.914286559,1,5,1,0,0
1,0.599629557,1,5,0,0,0
1,1.263340674,1,5,1,0,0
1,0.582924321,1,5,0,0,0
1,1.083043547,1,5,1,0,0
1,0.618840846,1,5,0,0,0
1,1.038490099,1,5,1,0,0
1,0.61040363,1,5,0,0,0
1,0.635603155,1,5,0,0,0
1,0.969276896,1,5,1,0,0
1,0.836849553,1,5,1,0,0
1,0.638350642,1,5,0,0,0
1,0.568125373,1,5,0,0,0
1,0.815189557,1,5,1,0,0
1,0.635513122,1,5,0,0,0
1,0.569705379,1,5,0,0,0
1,0.711446317,1,5,1,0,0
1,0.674011574,1,5,0,0,0
1,0.884732824,1,5,1,0,0
1,0.617354319,1,5,0,0,0
1,0.601191567,1,5,0,0,0
1,1.038330059,1,5,1,0,0
1,0.171742171,0,5,0,0,0
1,0.709214659,1,5,0,0,0
1,1.018401571,1,5,1,0,0
1,0.616015464,1,5,0,0,0
1,0.613251153,1,5,0,0,0
1,1.052492928,1,5,1,0,0
1,0.622418995,1,5,0,0,0
1,0.682703247,1,5,0,0,0
1,0.171671421,0,5,1,0,0
1,1.016237013,1,5,1,0,0
1,0.704541365,1,5,0,0,0
1,0.635600802,1,5,0,0,0
1,0.88438835,1,5,1,0,0
1,0.592302218,1,5,0,0,0
1,0.859254123,1,5,1,0,0
1,0.70905436,1,5,0,0,0
1,0.591359863,1,5,0,0,0
1,1.000555886,1,5,1,0,0
1,0.713062064,1,5,0,0,0
1,1.046056307,1,5,1,0,0
1,0.664902862,1,5,0,0,0
1,0.62540018,1,5,0,0,0
1,1.194279708,1,5,1,0,0
1,1.345434603,1,5,1,0,0
1,0.711386845,1,5,0,0,0
1,0.889267967,1,5,1,0,0
1,0.573419316,1,5,0,0,0
1,0.861542203,1,5,1,0,0
1,1.042703169,1,5,0,0,0
1,1.26251975,1,5,1,0,0
1,0.65239834,1,5,0,0,0
1,1.089120949,1,5,1,0,0
1,0.615735007,1,5,0,0,0
1,0.843650766,1,5,1,0,0
1,0.661854495,1,5,0,0,0
1,0.758825506,1,5,1,0,0
1,0.599084506,1,5,0,0,0
1,0.644273772,1,5,0,0,0
1,0.87444412,1,5,1,0,0
1,0.703669262,1,5,0,0,0
1,1.208170918,1,5,1,0,0
1,0.611350713,1,5,0,0,0
1,0.869381463,1,5,1,0,0
1,0.61009953,1,5,0,0,0
1,0.654227097,1,5,0,0,0
1,0.933144272,1,5,1,0,0
1,0.847388916,1,5,1,0,0
1,0.680187024,1,5,0,0,0
1,0.753090685,1,5,1,0,0
1,0.612541328,1,5,0,0,0
1,0.617221486,1,5,0,0,0
1,0.869086268,1,5,1,0,0
1,1.002896714,1,5,1,0,0
1,0.642650532,1,5,0,0,0
1,0.661122015,1,5,0,1,1
1,0.997521788,1,5,1,1,0
1,0.906336695,1,5,0,1,0
1,0.698560489,1,5,0,1,0
1,0.99394893,1,5,1,1,0
1,0.613856763,1,5,0,1,0
1,0.655679749,1,5,0,1,0
1,0.753375091,0,5,1,1,0
1,0.874621252,1,5,1,1,0
1,0.775200315,1,5,0,1,0
1,0.733824556,1,5,0,1,0
1,1.178257181,1,5,1,1,0
1,0.922025402,1,5,1,1,0
1,1.306174361,1,5,0,1,0
1,0.833242234,1,5,0,1,0
1,0.89916928,1,5,1,1,0
1,0.672990653,1,5,0,1,0
1,0.827990442,1,5,1,1,0
1,0.839365819,1,5,0,1,0
1,0.613202874,1,5,0,1,0
1,1.054010218,1,5,1,1,0
1,0.633370985,1,5,0,1,0
1,1.210709238,1,5,1,1,0
1,0.755444438,1,5,0,1,0
1,0.698530936,1,5,0,1,0
1,0.844084732,1,5,1,1,0
1,0.679057955,1,5,0,1,0
1,0.834804875,1,5,1,1,0
1,0.664727435,1,5,0,1,0
1,0.68168338,1,5,0,1,0
1,1.057686425,1,5,1,1,0
1,0.643256393,1,5,0,1,0
1,0.806816102,1,5,1,1,0
1,0.851872286,1,5,1,1,0
1,0.701644878,1,5,0,1,0
1,1.090984572,1,5,1,1,0
1,0.644419855,1,5,0,1,0
1,0.965784278,1,5,1,1,0
1,0.709966503,1,5,0,1,0
1,0.723777886,1,5,0,1,0
1,0.810370724,1,5,1,1,0
1,0.648341821,1,5,0,1,0
1,0.598735601,1,5,0,1,0
1,0.772026038,1,5,1,1,0
1,0.837484361,1,5,1,1,0
1,0.561240576,1,5,0,1,0
1,0.955070365,1,5,1,1,0
1,0.844069359,1,5,1,1,0
1,0.517145416,1,5,0,1,0
1,0.754681283,1,5,1,1,0
1,0.55515344,1,5,0,1,0
1,0.780877212,1,5,1,1,0
1,0.639879613,1,5,0,1,0
1,0.909077041,1,5,1,1,0
1,0.721452993,1,5,0,1,0
1,0.997807995,1,5,1,1,0
1,0.848519323,1,5,1,1,0
1,0.670211173,1,5,0,1,0
1,1.049468247,1,5,1,1,0
1,0.900316847,1,5,1,1,0
1,0.710679269,1,5,0,1,0
1,0.88204694,1,5,1,1,0
1,1.017170749,1,5,1,1,0
1,0.609051804,1,5,0,1,0
1,1.061052459,1,5,1,1,0
1,0.891376298,1,5,1,1,0
1,0.652831432,1,5,0,1,0
1,0.810226497,1,5,1,1,0
1,1.083553318,1,5,1,1,0
1,0.623345928,1,5,0,1,0
1,0.898901462,1,5,1,1,0
1,0.721643559,1,5,0,1,0
1,0.567551339,1,5,0,1,0
1,0.777992775,1,5,1,1,0
1,0.656234181,1,5,0,1,0
1,0.550660057,1,5,0,1,0
1,0.856105716,1,5,1,1,0
1,0.644934897,1,5,0,1,0
1,0.6000576,1,5,0,1,0
1,0.83158606,1,5,1,1,0
1,0.812642574,1,5,1,1,0
1,0.673907314,1,5,0,1,0
1,0.831239676,1,5,0,1,0
1,0.786469318,1,5,1,1,0
1,0.596636718,1,5,0,1,0
1,0.546417719,1,5,0,1,0
1,0.864426734,1,5,1,1,0
1,0.586695168,1,5,0,1,0
1,0.818265504,1,5,1,1,0
1,0.606015997,1,5,0,1,0
1,0.890720829,1,5,1,1,0
1,0.595653424,1,5,0,1,0
1,0.939475071,1,5,1,1,0
1,0.590698774,1,5,0,1,0
1,0.669902345,1,5,0,1,0
1,0.828508781,1,5,1,1,0
1,0.678987989,1,5,0,1,0
1,0.823976317,1,5,1,1,0
1,0.74338485,1,5,1,1,0
1,0.65298437,1,5,0,1,0
1,1.262548914,1,5,1,1,0
1,0.796081203,1,5,0,1,0
1,1.139507751,1,5,1,1,0
1,0.663458208,1,5,0,1,0
1,0.892897917,1,5,1,1,0
1,0.824225745,1,5,1,1,0
1,0.717747316,1,5,0,1,0
1,0.600729589,1,5,0,1,0
1,0.846747313,1,5,1,1,0
1,0.62653664,1,5,0,1,0
1,0.778245883,1,5,1,1,0
1,0.622653314,1,5,0,1,0
1,0.692457351,1,5,0,1,0
1,0.881021888,1,5,1,1,0
1,0.561762931,1,5,0,1,0
1,0.553820774,1,5,0,1,0
1,1.042428835,1,5,1,1,0
1,0.630814628,1,5,0,1,0
1,0.765523707,1,5,1,1,0
1,0.615321891,1,5,0,1,0
1,0.970907757,1,5,1,1,0
1,0.520785114,1,5,0,1,0
1,1.101621338,1,5,1,1,0
1,0.526336198,1,5,0,1,0
1,0.837457505,1,5,1,1,0
1,0.881296061,1,5,1,1,0
1,0.619527936,1,5,0,1,0
1,0.887835152,1,5,1,1,0
1,0.760411076,1,5,1,1,0
1,0.618897773,1,5,0,1,0
1,0.804826367,1,5,1,1,0
1,0.588586076,1,5,0,1,0
1,0.728619547,1,5,1,1,0
1,0.578979294,1,5,1,1,0
1,0.589972225,1,5,0,1,0
1,0.767886198,1,5,1,1,0
1,0.800215936,1,5,0,1,0
1,0.966107526,1,5,1,1,0
1,0.810616766,1,5,1,1,0
1,0.555451388,1,5,0,1,0
1,0.889111349,1,5,1,1,0
1,0.936224511,1,5,1,1,0
1,0.642844693,1,5,0,1,0
1,0.941582739,1,5,1,1,0
1,1.4043,1,6,1,0,0
1,1.1809,1,6,0,0,0
1,0.8576,1,6,0,0,0
1,1.1222,1,6,0,0,0
1,1.4961,1,6,1,0,0
1,1.4286,1,6,1,0,0
1,1.3928,1,6,0,0,0
1,0.9655,1,6,0,0,0
1,1.0411,0,6,1,0,0
1,1.4618,1,6,1,0,0
1,1.1867,1,6,0,0,0
1,1.3882,1,6,1,0,0
1,1.0246,1,6,0,0,0
1,1.1797,1,6,1,0,0
1,1.2096,1,6,0,0,0
1,1.0841,1,6,0,0,0
1,1.0309,1,6,0,0,0
1,1.0141,1,6,1,0,0
1,1.0133,1,6,0,0,0
1,0.7933,1,6,0,0,0
1,0.9169,1,6,1,0,0
1,1.259,1,6,0,0,0
1,1.4141,1,6,1,0,0
1,1.1597,1,6,0,0,0
1,1.1273,1,6,0,0,0
1,1.1882,1,6,1,0,0
1,1.2189,1,6,0,0,0
1,1.124,1,6,1,0,0
1,1.436,1,6,1,0,0
1,1.1192,1,6,0,0,0
1,1.2427,1,6,1,0,0
1,1.4606,1,6,0,0,0
1,1.3932,1,6,1,0,0
1,1.0136,1,6,0,0,0
1,1.0912,1,6,0,0,0
1,0.9765,1,6,0,0,0
1,1.022,1,6,0,0,0
1,1.0673,1,6,1,0,0
1,1.44,1,6,1,0,0
1,1.1075,1,6,0,0,0
1,1.4499,1,6,1,0,0
1,1.3669,1,6,1,0,0
1,1.0339,1,6,0,0,0
1,0.8089,1,6,0,0,0
1,0.8826,1,6,0,0,0
1,1.2549,1,6,1,0,0
1,1.0512,1,6,0,0,0
1,1.1119,1,6,1,0,0
1,1.1263,1,6,1,0,0
1,0.7029,1,6,0,0,0
1,1.0457,1,6,1,0,0
1,1.2321,1,6,1,0,0
1,0.8084,1,6,0,0,0
1,1.1827,1,6,1,0,0
1,1.3999,1,6,1,0,0
1,0.8946,1,6,0,0,0
1,1.0806,0,6,1,0,0
1,1.1689,1,6,0,0,0
1,1.1823,0,6,1,0,0
1,1.0863,1,6,1,0,0
1,0.9442,1,6,0,0,0
1,1.0683,1,6,1,0,0
1,0.9101,1,6,0,0,0
1,0.7368,1,6,0,0,0
1,1.4231,1,6,1,0,0
1,0.8397,1,6,0,0,0
1,0.9304,1,6,0,0,0
1,0.9936,1,6,1,0,0
1,0.9617,1,6,0,0,0
1,0.8362,1,6,0,0,0
1,0.9753,1,6,1,0,0
1,0.9699,1,6,0,0,0
1,1.4684,1,6,0,0,0
1,1.2916,1,6,1,0,0
1,0.9311,1,6,0,0,0
1,0.9146,1,6,0,0,0
1,1.3345,1,6,1,0,0
1,0.8296,1,6,0,0,0
1,0.9221,1,6,1,0,0
1,1.1397,1,6,0,0,0
1,0.9354,1,6,1,0,0
1,1.3558,1,6,0,0,0
1,1.4921,1,6,1,0,0
1,0.7994,1,6,0,0,0
1,0.8604,1,6,0,0,0
1,1.1556,1,6,1,0,0
1,0.7635,1,6,0,0,0
1,1.4349,1,6,1,0,0
1,1.4921,1,6,1,0,0
1,0.7379,1,6,0,0,0
1,1.2523,1,6,1,0,0
1,0.8137,1,6,0,0,0
1,1.1724,1,6,1,0,0
1,0.8744,1,6,0,0,0
1,0.9517,1,6,1,0,0
1,1.1996,1,6,1,0,0
1,0.963,1,6,0,0,0
1,0.822,1,6,0,0,0
1,1.4778,1,6,1,0,0
1,0.8162,1,6,0,0,0
1,1.2365,1,6,1,0,0
1,0.8288,1,6,0,0,0
1,0.8435,1,6,0,0,0
1,1.1552,1,6,1,0,0
1,0.904,1,6,0,0,0
1,1.1687,1,6,0,0,0
1,1.011,1,6,1,0,0
1,0.6814,1,6,0,0,0
1,0.8204,1,6,1,0,0
1,0.7574,1,6,0,0,0
1,1.2409,1,6,1,0,0
1,0.8493,1,6,0,0,0
1,0.6716,1,6,0,0,0
1,1.2957,1,6,1,0,0
1,1.1231,1,6,1,0,0
1,1.0287,1,6,0,0,0
1,1.3873,1,6,1,0,0
1,1.2374,1,6,0,0,0
1,1.2831,1,6,1,0,0
1,0.8903,1,6,0,0,0
1,1.3887,1,6,1,0,0
1,1.2585,1,6,1,0,0
1,0.9445,1,6,0,0,0
1,1.2554,1,6,1,0,0
1,0.7386,1,6,0,0,0
1,0.9874,0,6,1,0,0
1,0.9546,1,6,1,0,0
1,1.3239,1,6,1,0,0
1,1.1634,0,6,1,0,0
1,1.4899,1,6,0,0,0
1,1.1104,0,6,1,0,0
1,1.3393,1,6,0,1,0
1,1.1527,1,6,0,1,0
1,1.0386,1,6,1,1,0
1,0.9898,1,6,1,1,0
1,1.4261,0,6,0,1,0
1,1.192,1,6,0,1,0
1,0.8946,1,6,1,1,0
1,1.0657,1,6,0,1,0
1,0.7194,1,6,0,1,0
1,1.3122,1,6,1,1,0
1,0.9434,1,6,0,1,0
1,0.8172,0,6,1,1,0
1,1.1897,1,6,1,1,0
1,1.3079,1,6,1,1,0
1,1.2466,1,6,0,1,0
1,0.9492,1,6,1,1,0
1,1.2285,1,6,1,1,0
1,1.0086,1,6,0,1,0
1,1.2103,1,6,1,1,0
1,1.2563,1,6,0,1,0
1,1.063,1,6,0,1,0
1,0.7337,1,6,0,1,0
1,1.3673,1,6,0,1,0
1,1.1697,1,6,1,1,0
1,1.3247,1,6,0,1,0
1,0.9095,1,6,0,1,0
1,1.0294,1,6,1,1,0
1,1.2469,1,6,0,1,0
1,0.7511,1,6,1,1,0
1,0.9944,1,6,0,1,0
1,1.0209,1,6,0,1,0
1,0.9262,1,6,1,1,0
1,1.1285,1,6,1,1,0
1,1.0489,1,6,0,1,0
1,1.4686,0,6,1,1,0
1,1.3539,1,6,1,1,0
1,1.1772,1,6,0,1,0
1,1.02,1,6,0,1,0
1,1.3946,1,6,1,1,0
1,0.8899,1,6,1,1,0
1,0.9671,1,6,0,1,0
1,1.2927,1,6,0,1,0
1,0.9797,1,6,1,1,0
1,0.9786,1,6,0,1,0
1,1.1603,1,6,0,1,0
1,0.8884,1,6,0,1,0
1,1.4033,1,6,1,1,0
1,0.8513,1,6,0,1,0
1,1.2402,1,6,1,1,0
1,1.1137,1,6,0,1,0
1,0.9091,1,6,1,1,0
1,0.7051,1,6,0,1,0
1,1.2817,1,6,1,1,0
1,0.8895,1,6,0,1,0
1,1.1696,1,6,0,1,0
1,1.4659,1,6,1,1,0
1,1.1492,1,6,1,1,0
1,1.1316,1,6,0,1,0
1,0.7391,1,6,0,1,0
1,1.1282,1,6,1,1,0
1,1.0958,1,6,0,1,0
1,0.8922,1,6,0,1,0
1,1.2354,1,6,1,1,0
1,1.2348,1,6,0,1,0
1,1.4002,1,6,0,1,0
1,0.9888,1,6,0,1,0
1,1.4094,1,6,1,1,0
1,0.8888,1,6,0,1,0
1,0.7936,1,6,0,1,0
1,1.0378,1,6,0,1,0
1,0.7714,1,6,0,1,0
1,1.3013,1,6,1,1,0
1,0.7496,1,6,0,1,0
1,1.013,1,6,0,1,0
1,1.1528,1,6,1,1,0
1,1.3553,1,6,1,1,0
1,0.9395,1,6,0,1,0
1,1.3131,1,6,1,1,0
1,0.7306,1,6,0,1,0
1,0.9479,1,6,1,1,0
1,1.4307,1,6,0,1,0
1,0.9265,1,6,0,1,0
1,0.9412,0,6,1,1,0
1,1.0341,1,6,0,1,0
1,1.22,1,6,1,1,0
1,0.8122,1,6,0,1,0
1,0.9054,1,6,0,1,0
1,1.2278,1,6,1,1,0
1,1.2578,1,6,0,1,0
1,0.8295,1,6,0,1,0
1,1.079,1,6,1,1,0
1,0.9535,1,6,0,1,0
1,0.8745,1,6,1,1,0
1,0.9511,1,6,0,1,0
1,1.2776,1,6,1,1,0
1,1.0268,1,6,0,1,0
1,1.2251,1,6,0,1,0
1,1.2235,1,6,1,1,0
1,1.0509,1,6,0,1,0
1,0.7989,1,6,0,1,0
1,0.9527,1,6,1,1,0
1,1.3113,1,6,0,1,0
1,1.177,1,6,0,1,0
1,1.0821,1,6,1,1,0
1,1.0176,1,6,0,1,0
1,1.4372,1,6,0,1,0
1,1.0886,1,6,1,1,0
1,0.9006,1,6,1,1,0
1,0.9301,1,6,0,1,0
1,0.9753,1,6,1,1,0
1,0.7394,1,6,0,1,0
1,0.8632,1,6,0,1,0
1,1.0029,1,6,1,1,0
1,1.2983,1,6,1,1,0
1,1.1409,1,6,0,1,0
1,0.922,1,7,1,0,1
1,1.1082,1,7,1,0,0
1,0.7949,1,7,0,0,0
1,1.3568,1,7,1,0,0
1,1.3835,1,7,1,0,0
1,0.9567,1,7,0,0,0
1,0.9709,1,7,1,0,0
1,0.7985,1,7,0,0,0
1,0.8741,1,7,1,0,0
1,0.7788,1,7,0,0,0
1,1.0224,1,7,1,0,0
1,0.8028,1,7,0,0,0
1,1.0516,1,7,1,0,0
1,0.7525,1,7,0,0,0
1,0.7207,1,7,0,0,0
1,0.8759,1,7,1,0,0
1,1.3437,1,7,1,0,0
1,0.6979,1,7,0,0,0
1,1.1115,0,7,1,0,0
1,1.1164,1,7,1,0,0
1,0.8489,1,7,0,0,0
1,1.222,1,7,1,0,0
1,0.8308,1,7,0,0,0
1,1.0175,1,7,1,0,0
1,0.7344,1,7,0,0,0
1,1.0138,1,7,1,0,0
1,1.2466,1,7,1,0,0
1,0.8243,1,7,0,0,0
1,0.9012,1,7,1,0,0
1,0.7111,1,7,0,0,0
1,1.1002,1,7,1,0,0
1,0.8168,1,7,0,0,0
1,0.8621,1,7,0,0,0
1,1.1731,1,7,1,0,0
1,0.7813,1,7,0,0,0
1,1.061,1,7,1,0,0
1,0.9615,1,7,0,0,0
1,1.2266,1,7,1,0,0
1,0.679,1,7,0,0,0
1,1.1939,1,7,1,0,0
1,1.2241,1,7,1,0,0
1,1.0197,1,7,0,0,0
1,1.1745,1,7,1,0,0
1,1.0792,1,7,1,0,0
1,0.8132,1,7,0,0,0
1,0.906,1,7,1,0,0
1,0.6857,1,7,0,0,0
1,1.3258,1,7,1,0,0
1,0.7741,1,7,0,0,0
1,1.0073,1,7,1,0,0
1,1.1626,1,7,1,0,0
1,0.8643,1,7,0,0,0
1,0.9887,1,7,1,0,0
1,1.0653,1,7,1,0,0
1,0.8295,1,7,0,0,0
1,0.672,1,7,0,0,0
1,0.968,1,7,1,0,0
1,1.1533,1,7,1,0,0
1,0.7618,1,7,0,0,0
1,0.6825,1,7,0,0,0
1,0.9932,1,7,1,0,0
1,0.727,1,7,0,0,0
1,1.0074,1,7,1,0,0
1,0.7406,1,7,0,0,0
1,1.3725,1,7,1,0,0
1,0.7345,1,7,0,0,0
1,0.9663,1,7,1,0,0
1,0.6983,1,7,0,0,0
1,0.9616,1,7,1,0,0
1,0.7111,1,7,0,0,0
1,1.007,1,7,1,0,0
1,0.7875,1,7,0,0,0
1,1.0523,1,7,1,0,0
1,0.7226,1,7,0,0,0
1,0.7689,1,7,0,0,0
1,0.9236,1,7,1,0,0
1,1.1263,1,7,1,0,0
1,0.8132,1,7,0,0,0
1,0.8589,1,7,0,0,0
1,1.2331,1,7,1,0,0
1,0.8247,1,7,0,0,0
1,0.8231,1,7,0,0,0
1,0.7501,1,7,0,0,0
1,1.1272,1,7,1,0,0
1,0.9013,1,7,0,0,0
1,0.7023,1,7,0,0,0
1,0.7955,1,7,1,0,0
1,0.6378,1,7,0,0,0
1,0.746,1,7,0,0,0
1,1.4639,1,7,1,0,0
1,0.5995,1,7,0,0,0
1,0.6918,1,7,0,0,0
1,1.1909,1,7,1,0,0
1,0.6425,1,7,0,0,0
1,0.7508,1,7,0,0,0
1,1.171,1,7,1,0,0
1,0.9195,1,7,1,0,0
1,0.7462,1,7,0,0,0
1,0.7609,1,7,0,0,0
1,1.0729,1,7,1,0,0
1,0.7907,1,7,0,0,0
1,1.4121,1,7,1,0,0
1,0.7697,1,7,0,0,0
1,0.6753,1,7,0,0,0
1,1.0801,1,7,1,0,0
1,0.6887,1,7,0,0,0
1,1.1718,1,7,1,0,0
1,0.8895,1,7,0,0,0
1,0.6536,1,7,0,0,0
1,1.1686,1,7,1,0,0
1,1.2303,1,7,1,0,0
1,0.8539,1,7,0,0,0
1,1.3369,1,7,1,0,0
1,0.8795,1,7,0,0,0
1,1.0343,1,7,1,0,0
1,0.8137,1,7,0,0,0
1,1.2662,1,7,1,0,0
1,0.8116,1,7,0,0,0
1,1.1851,1,7,1,0,0
1,0.7194,1,7,0,0,0
1,1.0583,1,7,1,0,0
1,0.7297,1,7,0,0,0
1,1.1822,1,7,1,0,0
1,0.7432,1,7,0,0,0
1,0.6955,1,7,0,0,0
1,0.8975,1,7,1,0,0
1,0.8649,1,7,0,0,0
1,1.0968,1,7,1,0,0
1,0.7207,1,7,0,0,0
1,0.9535,1,7,1,0,0
1,0.687,1,7,0,0,0
1,0.6703,1,7,0,0,0
1,1.1065,1,7,1,0,0
1,0.8716,1,7,1,0,0
1,0.792,1,7,0,0,0
1,0.807,1,7,1,0,0
1,1.1337,1,7,0,0,0
1,0.9124,1,7,0,0,0
1,0.9743,1,7,1,0,0
1,1.176,1,7,1,0,0
1,0.8779,1,7,0,0,0
1,0.7624,1,7,0,1,1
1,0.9799,1,7,1,1,0
1,0.6194,1,7,0,1,0
1,0.9939,1,7,0,1,0
1,1.04,1,7,1,1,0
1,0.9292,1,7,0,1,0
1,0.7252,1,7,0,1,0
1,1.4113,1,7,1,1,0
1,1.1091,1,7,1,1,0
1,0.979,1,7,0,1,0
1,1.0716,1,7,1,1,0
1,1.3829,1,7,1,1,0
1,0.8311,1,7,0,1,0
1,0.6727,1,7,0,1,0
1,1.109,1,7,1,1,0
1,0.9211,1,7,0,1,0
1,1.0914,1,7,1,1,0
1,0.7622,1,7,0,1,0
1,0.8863,1,7,0,1,0
1,1.2136,1,7,1,1,0
1,0.8839,1,7,0,1,0
1,1.0849,1,7,1,1,0
1,0.8176,1,7,0,1,0
1,1.0345,1,7,0,1,0
1,0.8608,1,7,1,1,0
1,0.8135,1,7,0,1,0
1,1.2338,1,7,1,1,0
1,1.0597,1,7,0,1,0
1,0.7617,1,7,0,1,0
1,1.1202,1,7,1,1,0
1,0.9941,1,7,0,1,0
1,0.9301,1,7,1,1,0
1,1.2261,1,7,1,1,0
1,0.7257,1,7,0,1,0
1,1.1802,1,7,1,1,0
1,1.0524,1,7,0,1,0
1,1.0674,1,7,1,1,0
1,0.925,1,7,0,1,0
1,0.6892,1,7,0,1,0
1,0.9542,1,7,1,1,0
1,0.9108,1,7,0,1,0
1,0.8907,1,7,0,1,0
1,0.9205,1,7,1,1,0
1,1.2783,1,7,1,1,0
1,0.7622,1,7,0,1,0
1,1.0732,1,7,1,1,0
1,1.2914,1,7,1,1,0
1,0.6497,1,7,0,1,0
1,0.835,1,7,1,1,0
1,0.7095,1,7,0,1,0
1,0.8335,1,7,1,1,0
1,0.6909,1,7,0,1,0
1,1.0799,1,7,1,1,0
1,0.6415,1,7,0,1,0
1,1.0776,1,7,1,1,0
1,0.889,1,7,1,1,0
1,0.654,1,7,0,1,0
1,0.9657,1,7,1,1,0
1,1.0575,1,7,1,1,0
1,0.7914,1,7,0,1,0
1,1.3218,1,7,1,1,0
1,0.8322,1,7,1,1,0
1,0.689,1,7,0,1,0
1,0.8135,1,7,1,1,0
1,0.7344,1,7,1,1,0
1,0.717,1,7,0,1,0
1,0.8708,1,7,1,1,0
1,1.354,1,7,1,1,0
1,0.6463,1,7,0,1,0
1,0.9889,1,7,1,1,0
1,0.738,1,7,0,1,0
1,0.7063,1,7,0,1,0
1,0.9395,1,7,1,1,0
1,0.6414,1,7,0,1,0
1,0.6246,1,7,0,1,0
1,0.9991,1,7,1,1,0
1,1.1375,1,7,0,1,0
1,0.6522,1,7,0,1,0
1,0.932,1,7,1,1,0
1,0.9764,1,7,1,1,0
1,0.8189,1,7,0,1,0
1,0.8477,1,7,0,1,0
1,1.0031,1,7,1,1,0
1,0.7985,1,7,0,1,0
1,0.7025,1,7,0,1,0
1,0.9673,1,7,1,1,0
1,0.8085,1,7,0,1,0
1,0.8855,1,7,1,1,0
1,1.0562,1,7,0,1,0
1,0.9144,1,7,1,1,0
1,0.617,1,7,0,1,0
1,0.9592,1,7,1,1,0
1,0.6455,1,7,0,1,0
1,0.644,1,7,0,1,0
1,0.8463,1,7,1,1,0
1,0.6729,1,7,0,1,0
1,1.0624,1,7,1,1,0
1,0.9679,1,7,1,1,0
1,0.684,1,7,0,1,0
1,0.9478,0,7,1,1,0
1,0.7431,1,7,0,1,0
1,1.1167,1,7,1,1,0
1,0.724,1,7,0,1,0
1,0.8795,1,7,1,1,0
1,1.1289,1,7,1,1,0
1,0.7377,1,7,0,1,0
1,0.6276,1,7,0,1,0
1,0.9081,1,7,1,1,0
1,0.7815,1,7,0,1,0
1,1.0913,1,7,1,1,0
1,0.6223,1,7,0,1,0
1,0.6998,1,7,0,1,0
1,1.041,1,7,1,1,0
1,0.8211,1,7,0,1,0
1,0.6487,1,7,0,1,0
1,0.944,1,7,1,1,0
1,0.6304,1,7,0,1,0
1,0.9732,1,7,1,1,0
1,0.9248,1,7,0,1,0
1,1.1583,1,7,1,1,0
1,0.6725,1,7,0,1,0
1,1.2491,1,7,1,1,0
1,0.7937,1,7,0,1,0
1,1.0582,1,7,1,1,0
1,1.0415,1,7,1,1,0
1,0.8682,1,7,0,1,0
1,0.9915,1,7,1,1,0
1,0.9441,1,7,1,1,0
1,0.8339,1,7,0,1,0
1,0.9101,1,7,1,1,0
1,0.7533,1,7,0,1,0
1,0.6899,1,7,1,1,0
1,0.7673,1,7,1,1,0
1,0.7022,1,7,0,1,0
1,1.1861,1,7,1,1,0
1,0.7793,1,7,0,1,0
1,0.8715,1,7,1,1,0
1,1.2145,1,7,1,1,0
1,0.681,1,7,0,1,0
1,0.946,1,7,1,1,0
1,0.929,1,7,1,1,0
1,0.6785,1,7,0,1,0
1,1.0057,1,7,1,1,0
1,0.8148,1,8,1,0,1
1,0.7652,1,8,1,0,0
1,0.779,1,8,0,0,0
1,1.2622,1,8,1,0,0
1,0.8867,1,8,1,0,0
1,0.5727,1,8,0,0,0
1,0.728,1,8,1,0,0
1,0.5242,1,8,0,0,0
1,0.6164,1,8,1,0,0
1,0.5826,1,8,0,0,0
1,0.8151,1,8,1,0,0
1,0.6257,1,8,1,0,0
1,0.5464,1,8,0,0,0
1,0.6233,1,8,1,0,0
1,0.6068,1,8,0,0,0
1,0.4189,1,8,0,0,0
1,0.649,1,8,1,0,0
1,0.6335,0,8,1,0,0
1,0.4747,1,8,0,0,0
1,0.7399,1,8,1,0,0
1,0.5984,1,8,1,0,0
1,0.8303,1,8,0,0,0
1,0.7984,0,8,1,0,0
1,0.5308,1,8,0,0,0
1,0.8423,1,8,1,0,0
1,0.5132,1,8,0,0,0
1,0.6837,1,8,1,0,0
1,1.2602,1,8,1,0,0
1,0.5399,1,8,0,0,0
1,0.8988,1,8,1,0,0
1,0.4903,1,8,0,0,0
1,0.818,1,8,1,0,0
1,0.4723,1,8,0,0,0
1,0.5649,1,8,0,0,0
1,0.9383,1,8,1,0,0
1,0.7809,1,8,0,0,0
1,0.7173,1,8,1,0,0
1,0.9654,1,8,1,0,0
1,0.6191,1,8,0,0,0
1,0.8526,1,8,1,0,0
1,0.4921,1,8,0,0,0
1,0.7409,1,8,1,0,0
1,0.8331,1,8,1,0,0
1,0.4712,1,8,0,0,0
1,0.7832,1,8,1,0,0
1,0.8118,1,8,1,0,0
1,0.4986,1,8,0,0,0
1,0.7619,1,8,1,0,0
1,0.5108,1,8,0,0,0
1,0.799,1,8,1,0,0
1,0.5074,1,8,0,0,0
1,0.8975,1,8,1,0,0
1,0.8335,1,8,1,0,0
1,0.4872,1,8,0,0,0
1,0.9394,1,8,1,0,0
1,0.6733,1,8,1,0,0
1,0.6884,0,8,0,0,0
1,0.515,1,8,0,0,0
1,0.7315,1,8,1,0,0
1,0.6668,1,8,1,0,0
1,0.4934,1,8,0,0,0
1,0.5395,1,8,0,0,0
1,1.2571,1,8,1,0,0
1,0.5528,1,8,0,0,0
1,0.7237,1,8,1,0,0
1,0.5041,1,8,0,0,0
1,0.6908,0,8,1,0,0
1,0.5027,1,8,0,0,0
1,0.8921,1,8,1,0,0
1,0.4544,1,8,0,0,0
1,0.7814,1,8,1,0,0
1,0.4986,1,8,0,0,0
1,0.6838,1,8,1,0,0
1,0.4782,1,8,0,0,0
1,0.7586,1,8,1,0,0
1,0.5059,1,8,0,0,0
1,0.5379,1,8,0,0,0
1,0.5995,1,8,1,0,0
1,0.6595,1,8,1,0,0
1,0.487,1,8,0,0,0
1,0.4549,1,8,0,0,0
1,0.9384,1,8,1,0,0
1,0.5779,1,8,0,0,0
1,0.4523,1,8,0,0,0
1,0.6706,1,8,1,0,0
1,0.4343,1,8,0,0,0
1,0.6977,1,8,1,0,0
1,0.5247,1,8,0,0,0
1,0.4295,1,8,0,0,0
1,1.0223,1,8,1,0,0
1,0.4906,1,8,0,0,0
1,0.4578,1,8,0,0,0
1,0.8781,1,8,1,0,0
1,0.4555,1,8,0,0,0
1,0.4393,1,8,0,0,0
1,0.7034,1,8,1,0,0
1,0.5779,1,8,0,0,0
1,0.577,1,8,0,0,0
1,0.7165,1,8,1,0,0
1,0.6836,1,8,1,0,0
1,0.4787,1,8,0,0,0
1,0.5086,1,8,0,0,0
1,1.0384,1,8,1,0,0
1,0.4715,1,8,0,0,0
1,0.7402,1,8,1,0,0
1,0.489,1,8,0,0,0
1,0.4721,1,8,0,0,0
1,1.081,1,8,1,0,0
1,0.5332,1,8,0,0,0
1,1.0782,1,8,1,0,0
1,0.5146,1,8,0,0,0
1,0.4822,1,8,0,0,0
1,0.6828,1,8,1,0,0
1,0.8525,1,8,1,0,0
1,0.5761,1,8,0,0,0
1,0.8969,1,8,1,0,0
1,0.5519,1,8,0,0,0
1,0.6435,1,8,1,0,0
1,0.4547,1,8,0,0,0
1,0.6255,1,8,1,0,0
1,0.5312,1,8,0,0,0
1,0.6546,1,8,1,0,0
1,0.5751,1,8,0,0,0
1,0.7932,1,8,1,0,0
1,0.4959,1,8,0,0,0
1,0.6668,1,8,1,0,0
1,0.7112,1,8,0,0,0
1,0.4605,1,8,0,0,0
1,0.7404,1,8,1,0,0
1,0.4898,1,8,0,0,0
1,1.1762,0,8,1,0,0
1,0.4568,1,8,0,0,0
1,1.0179,1,8,1,0,0
1,0.516,1,8,0,0,0
1,0.4357,1,8,0,0,0
1,0.8716,1,8,1,0,0
1,0.7296,1,8,1,0,0
1,0.4789,1,8,0,0,0
1,0.8378,1,8,1,0,0
1,0.5238,1,8,0,0,0
1,0.4911,1,8,0,0,0
1,0.7399,1,8,1,0,0
1,0.8018,1,8,1,0,0
1,0.5027,1,8,0,0,0
1,0.83,1,8,0,1,1
1,0.767,1,8,1,1,0
1,0.4994,1,8,0,1,0
1,0.5756,1,8,0,1,0
1,0.7939,1,8,1,1,0
1,0.4649,1,8,0,1,0
1,0.5252,1,8,0,1,0
1,0.8371,1,8,1,1,0
1,0.6142,0,8,1,1,0
1,0.4761,1,8,0,1,0
1,0.6308,1,8,0,1,0
1,0.9893,1,8,1,1,0
1,0.8159,1,8,1,1,0
1,0.6731,1,8,0,1,0
1,0.516,1,8,0,1,0
1,0.7172,1,8,1,1,0
1,0.6837,1,8,0,1,0
1,0.7437,0,8,1,1,0
1,0.5866,1,8,0,1,0
1,0.5695,1,8,0,1,0
1,0.7086,1,8,1,1,0
1,0.5039,1,8,0,1,0
1,0.82,1,8,1,1,0
1,0.6109,1,8,0,1,0
1,0.5313,1,8,0,1,0
1,0.5766,1,8,1,1,0
1,0.5601,1,8,0,1,0
1,0.8715,1,8,1,1,0
1,0.6358,1,8,0,1,0
1,0.5259,1,8,0,1,0
1,0.7907,1,8,1,1,0
1,0.618,1,8,0,1,0
1,0.6942,1,8,1,1,0
1,0.9271,1,8,1,1,0
1,0.5672,1,8,0,1,0
1,0.8,1,8,1,1,0
1,0.5478,1,8,0,1,0
1,0.7025,1,8,1,1,0
1,0.5105,1,8,0,1,0
1,0.5452,1,8,0,1,0
1,0.6846,1,8,1,1,0
1,0.5573,1,8,0,1,0
1,0.6499,1,8,0,1,0
1,0.648,1,8,1,1,0
1,0.8651,1,8,1,1,0
1,0.613,1,8,0,1,0
1,0.8149,1,8,1,1,0
1,0.8287,1,8,1,1,0
1,0.5102,1,8,0,1,0
1,0.7644,1,8,1,1,0
1,0.4983,1,8,0,1,0
1,0.7145,1,8,1,1,0
1,0.5567,1,8,0,1,0
1,1.0468,1,8,1,1,0
1,0.5387,1,8,0,1,0
1,0.8348,1,8,1,1,0
1,0.6297,1,8,1,1,0
1,0.4885,1,8,0,1,0
1,0.8314,1,8,1,1,0
1,0.9385,1,8,1,1,0
1,0.5937,1,8,0,1,0
1,0.8265,1,8,1,1,0
1,0.6072,1,8,1,1,0
1,0.4973,1,8,0,1,0
1,0.5898,1,8,1,1,0
1,0.6203,0,8,1,1,0
1,0.5728,1,8,0,1,0
1,0.7745,1,8,1,1,0
1,0.8201,1,8,1,1,0
1,0.5377,1,8,0,1,0
1,0.6616,1,8,1,1,0
1,0.5354,1,8,0,1,0
1,0.5025,1,8,0,1,0
1,0.8927,0,8,1,1,0
1,0.7192,1,8,0,1,0
1,0.4679,1,8,0,1,0
1,0.7315,1,8,1,1,0
1,0.5571,1,8,0,1,0
1,0.5242,1,8,0,1,0
1,0.8204,1,8,1,1,0
1,0.7569,1,8,1,1,0
1,0.5534,1,8,0,1,0
1,0.5206,1,8,0,1,0
1,0.7696,1,8,1,1,0
1,0.5501,1,8,0,1,0
1,0.6263,1,8,0,1,0
1,0.6726,1,8,1,1,0
1,0.4679,1,8,0,1,0
1,0.5438,1,8,1,1,0
1,0.512,1,8,0,1,0
1,0.5584,1,8,1,1,0
1,0.4792,1,8,0,1,0
1,0.712,1,8,1,1,0
1,0.4453,1,8,0,1,0
1,0.507,1,8,0,1,0
1,1.1933,1,8,1,1,0
1,0.4734,1,8,0,1,0
1,0.7538,1,8,1,1,0
1,0.6276,1,8,1,1,0
1,0.6427,1,8,0,1,0
1,0.6728,1,8,1,1,0
1,0.4845,1,8,0,1,0
1,0.8266,1,8,1,1,0
1,0.5449,1,8,0,1,0
1,0.7777,1,8,1,1,0
1,0.7919,1,8,1,1,0
1,0.4629,1,8,0,1,0
1,0.4298,1,8,0,1,0
1,0.5539,0,8,1,1,0
1,0.5058,1,8,0,1,0
1,0.7699,1,8,1,1,0
1,0.4882,1,8,0,1,0
1,0.4716,1,8,0,1,0
1,0.7367,1,8,1,1,0
1,0.5008,1,8,0,1,0
1,0.4671,1,8,0,1,0
1,0.6371,1,8,1,1,0
1,0.4636,1,8,0,1,0
1,0.6316,1,8,1,1,0
1,0.5383,1,8,0,1,0
1,0.7827,1,8,1,1,0
1,0.4881,1,8,0,1,0
1,0.9552,1,8,1,1,0
1,0.5328,1,8,0,1,0
1,0.7966,1,8,1,1,0
1,0.9991,1,8,1,1,0
1,0.482,1,8,0,1,0
1,0.7773,1,8,1,1,0
1,0.8073,1,8,1,1,0
1,0.5255,1,8,0,1,0
1,0.7594,1,8,1,1,0
1,0.5078,1,8,0,1,0
1,0.7258,1,8,1,1,0
1,0.6461,1,8,1,1,0
1,0.5352,1,8,0,1,0
1,0.6597,1,8,1,1,0
1,0.4706,1,8,0,1,0
1,0.8605,1,8,1,1,0
1,0.7183,0,8,1,1,0
1,0.4511,1,8,0,1,0
1,0.7149,1,8,1,1,0
1,0.6188,0,8,1,1,0
1,0.5389,1,8,0,1,0
1,0.8345,1,8,1,1,0
1,0.910625065,1,9,1,0,1
1,1.167078936,1,9,1,0,0
1,1.052261777,1,9,0,0,0
1,1.176087473,1,9,1,0,0
1,1.156098929,1,9,0,0,0
1,1.148427793,1,9,1,0,0
1,0.668478923,1,9,0,0,0
1,0.994058504,1,9,1,0,0
1,0.863123258,1,9,0,0,0
1,1.238096114,1,9,1,0,0
1,1.400043616,1,9,1,0,0
1,0.939127287,1,9,1,0,0
1,0.722404301,1,9,0,0,0
1,1.130550049,1,9,0,0,0
1,1.242299588,1,9,1,0,0
1,1.097161018,1,9,1,0,0
1,0.954889489,1,9,0,0,0
1,1.359785856,1,9,1,0,0
1,1.177262521,1,9,1,0,0
1,0.80570268,1,9,0,0,0
1,1.051386788,1,9,1,0,0
1,1.030156188,1,9,0,0,0
1,1.274922285,1,9,1,0,0
1,1.058214305,1,9,0,0,0
1,1.204989125,1,9,1,0,0
1,0.858099834,1,9,1,0,0
1,1.330051708,1,9,0,0,0
1,1.473232985,1,9,1,0,0
1,0.85730562,1,9,0,0,0
1,1.42574206,1,9,1,0,0
1,0.570037942,1,9,0,0,0
1,1.172424418,1,9,0,0,0
1,0.661140541,1,9,0,0,0
1,1.230898617,1,9,1,0,0
1,1.18525569,1,9,1,0,0
1,1.353043813,1,9,0,0,0
1,1.246536353,1,9,1,0,0
1,0.78652541,1,9,0,0,0
1,1.417291312,0,9,1,0,0
1,1.166039185,1,9,1,0,0
1,0.85890211,1,9,0,0,0
1,1.307357154,1,9,1,0,0
1,1.324553995,1,9,1,0,0
1,0.840346005,1,9,0,0,0
1,1.169154165,1,9,1,0,0
1,0.846734052,1,9,0,0,0
1,1.28395486,1,9,1,0,0
1,0.993120458,1,9,1,0,0
1,1.13124664,1,9,0,0,0
1,1.45913743,1,9,1,0,0
1,1.155932934,0,9,1,0,0
1,1.397830523,1,9,0,0,0
1,0.895950727,1,9,1,0,0
1,1.233557679,1,9,1,0,0
1,1.37960936,1,9,0,0,0
1,0.889986157,1,9,0,0,0
1,1.458447991,1,9,1,0,0
1,1.179028078,1,9,0,0,0
1,0.580212822,1,9,0,0,0
1,1.0158098,1,9,1,0,0
1,1.03672233,1,9,0,0,0
1,1.137904558,1,9,1,0,0
1,0.617757519,1,9,0,0,0
1,0.748246597,1,9,0,0,0
1,1.122846222,1,9,1,0,0
1,0.742201402,1,9,0,0,0
1,0.692118246,1,9,0,0,0
1,0.880004274,1,9,0,0,0
1,1.113866255,1,9,1,0,0
1,0.587717844,1,9,0,0,0
1,0.602270195,1,9,0,0,0
1,1.033043533,1,9,1,0,0
1,1.112028299,1,9,0,0,0
1,0.631211465,1,9,0,0,0
1,1.278468421,1,9,1,0,0
1,0.829221978,1,9,0,0,0
1,0.96842765,1,9,1,0,0
1,0.807731035,1,9,0,0,0
1,0.982029235,1,9,0,0,0
1,1.357368463,1,9,1,0,0
1,0.669274457,1,9,0,0,0
1,0.666544702,1,9,0,0,0
1,1.413266437,1,9,1,0,0
1,0.680283991,1,9,0,0,0
1,0.529395367,1,9,0,0,0
1,0.633994922,1,9,0,0,0
1,1.178932209,1,9,0,0,0
1,1.269261598,1,9,1,0,0
1,1.101433997,1,9,1,0,0
1,0.923862825,1,9,0,0,0
1,0.704197324,1,9,0,0,0
1,1.418878452,1,9,1,0,0
1,0.868293838,1,9,1,0,0
1,1.361507287,1,9,0,0,0
1,0.657927583,1,9,0,0,0
1,1.106111926,1,9,1,0,0
1,0.73526711,1,9,0,0,0
1,0.905057256,1,9,0,0,0
1,0.761619425,1,9,0,0,0
1,1.176121067,0,9,1,0,0
1,1.430257713,1,9,1,0,0
1,0.87196446,1,9,0,0,0
1,1.024350607,1,9,1,0,0
1,0.73875052,1,9,0,0,0
1,0.939750107,1,9,1,0,0
1,0.680438888,1,9,0,0,0
1,1.293183156,1,9,1,0,0
1,1.13918733,1,9,0,0,0
1,1.272253389,1,9,1,0,0
1,0.762552096,1,9,0,0,0
1,1.300467639,1,9,0,0,0
1,1.44075546,1,9,1,0,0
1,0.687722443,1,9,0,0,0
1,0.681622749,1,9,0,0,0
1,1.213000436,0,9,1,0,0
1,0.906316305,1,9,0,0,0
1,0.720030545,1,9,0,0,0
1,0.814941912,1,9,0,0,0
1,0.577363891,1,9,0,0,0
1,1.020093871,1,9,1,0,0
1,0.79214349,1,9,1,0,0
1,0.667223352,1,9,0,0,0
1,0.652502615,1,9,0,0,0
1,0.665342595,1,9,0,0,0
1,1.036215035,1,9,1,0,0
1,1.243381572,1,9,1,0,0
1,0.716889628,1,9,0,0,0
1,1.15389484,1,9,0,1,1
1,0.957543398,1,9,1,1,0
1,0.55397394,1,9,0,1,0
1,0.629278971,1,9,0,1,0
1,1.14074088,1,9,1,1,0
1,0.538044464,1,9,0,1,0
1,0.622250872,1,9,0,1,0
1,1.427775881,1,9,1,1,0
1,0.818163938,1,9,1,1,0
1,0.757039456,1,9,0,1,0
1,0.602486869,1,9,0,1,0
1,0.884335326,1,9,1,1,0
1,1.004335216,1,9,1,1,0
1,0.64463141,1,9,0,1,0
1,0.538187029,1,9,0,1,0
1,0.610466327,1,9,0,1,0
1,1.214301586,1,9,1,1,0
1,0.784106627,1,9,0,1,0
1,0.881342197,1,9,0,1,0
1,0.834662627,1,9,1,1,0
1,0.573967595,1,9,0,1,0
1,0.727316012,1,9,1,1,0
1,0.645282512,1,9,0,1,0
1,0.561624113,1,9,0,1,0
1,0.632288828,1,9,1,1,0
1,0.555408821,1,9,0,1,0
1,1.456823275,1,9,1,1,0
1,0.801177926,1,9,0,1,0
1,0.55809369,1,9,0,1,0
1,0.768232377,1,9,1,1,0
1,0.652757415,1,9,0,1,0
1,1.31084698,1,9,1,1,0
1,1.473906909,1,9,1,1,0
1,0.681537155,1,9,0,1,0
1,1.109603883,1,9,1,1,0
1,0.531665816,1,9,0,1,0
1,0.777233788,1,9,1,1,0
1,0.588336833,1,9,0,1,0
1,0.527156914,1,9,0,1,0
1,0.86336362,1,9,1,1,0
1,0.619591498,1,9,0,1,0
1,0.602828388,1,9,0,1,0
1,0.818357378,1,9,1,1,0
1,1.208262875,1,9,1,1,0
1,0.611480493,1,9,0,1,0
1,0.92326558,1,9,1,1,0
1,1.088302156,1,9,1,1,0
1,0.651666853,1,9,0,1,0
1,0.658051922,1,9,1,1,0
1,0.774800928,1,9,0,1,0
1,1.054232604,1,9,1,1,0
1,0.758947811,1,9,0,1,0
1,0.979324363,1,9,1,1,0
1,0.594757374,1,9,0,1,0
1,0.701677684,1,9,1,1,0
1,0.659454358,1,9,1,1,0
1,0.584517461,1,9,0,1,0
1,0.848003352,1,9,1,1,0
1,0.82924912,1,9,0,1,0
1,1.284020531,1,9,1,1,0
1,0.678503232,1,9,1,1,0
1,0.546327616,1,9,0,1,0
1,0.651057241,1,9,1,1,0
1,0.731093461,1,9,1,1,0
1,0.540636219,1,9,0,1,0
1,0.584024989,1,9,1,1,0
1,0.638257174,0,9,1,1,0
1,0.722821961,1,9,0,1,0
1,0.899092099,1,9,1,1,0
1,0.765889033,1,9,0,1,0
1,0.598020023,1,9,0,1,0
1,1.358083612,1,9,1,1,0
1,0.692994591,1,9,0,1,0
1,0.68541785,1,9,0,1,0
1,0.902968794,1,9,1,1,0
1,0.631179577,1,9,0,1,0
1,0.575276253,1,9,0,1,0
1,0.943615582,1,9,1,1,0
1,1.151597619,1,9,1,1,0
1,0.63955515,1,9,0,1,0
1,0.721518319,1,9,0,1,0
1,0.626016242,1,9,1,1,0
1,0.50967467,1,9,0,1,0
1,0.511771847,1,9,0,1,0
1,0.815342203,1,9,1,1,0
1,0.529059892,1,9,0,1,0
1,0.643334552,1,9,1,1,0
1,0.517313712,1,9,0,1,0
1,0.580026714,1,9,1,1,0
1,0.547461571,1,9,0,1,0
1,0.951034278,1,9,1,1,0
1,0.559021814,1,9,0,1,0
1,0.613952392,1,9,0,1,0
1,0.773446204,1,9,1,1,0
1,0.567962128,1,9,0,1,0
1,0.944283064,1,9,1,1,0
1,0.773794306,1,9,1,1,0
1,0.644264109,1,9,0,1,0
1,0.905895252,1,9,1,1,0
1,0.602006097,1,9,0,1,0
1,0.752815262,1,9,0,1,0
1,0.802740631,1,9,1,1,0
1,0.778677465,1,9,1,1,0
1,0.570266892,1,9,0,1,0
1,0.571314129,1,9,0,1,0
1,1.113283086,1,9,1,1,0
1,0.561666488,1,9,0,1,0
1,0.841552982,1,9,1,1,0
1,0.521331738,1,9,0,1,0
1,0.538020485,1,9,0,1,0
1,1.138837739,1,9,1,1,0
1,0.62067183,1,9,0,1,0
1,0.663437744,1,9,0,1,0
1,0.615994824,1,9,1,1,0
1,0.532425027,1,9,0,1,0
1,0.772437178,1,9,1,1,0
1,0.675722186,1,9,0,1,0
1,0.985627066,1,9,1,1,0
1,0.561862451,1,9,0,1,0
1,0.836674926,1,9,1,1,0
1,0.668315866,1,9,0,1,0
1,0.959184368,1,9,1,1,0
1,0.88749354,1,9,1,1,0
1,0.523388441,1,9,0,1,0
1,0.803459538,1,9,1,1,0
1,0.834077059,1,9,1,1,0
1,0.601983657,1,9,0,1,0
1,1.158066152,1,9,1,1,0
1,0.584616083,1,9,0,1,0
1,0.75569966,1,9,1,1,0
1,0.758408924,1,9,1,1,0
1,0.582055853,1,9,0,1,0
1,0.896899061,1,9,1,1,0
1,0.508552539,1,9,0,1,0
1,0.685784274,1,9,1,1,0
1,0.802436087,1,9,1,1,0
1,0.51541669,1,9,0,1,0
1,0.721394138,1,9,1,1,0
1,1.077100319,1,9,1,1,0
1,0.597844491,1,9,0,1,0
1,0.96446142,1,9,1,1,0
1,0.7572,1,10,0,0,1
1,1.4591,1,10,1,0,0
1,0.6423,1,10,0,0,0
1,0.8915,1,10,0,0,0
1,0.8905,0,10,1,0,0
1,0.686,1,10,0,0,0
1,0.6692,1,10,0,0,0
1,1.4335,1,10,1,0,0
1,0.898,1,10,1,0,0
1,0.6152,1,10,0,0,0
1,0.9254,1,10,0,0,0
1,1.4709,1,10,1,0,0
1,1.1223,1,10,1,0,0
1,0.6994,1,10,0,0,0
1,0.7441,1,10,0,0,0
1,1.1026,1,10,1,0,0
1,0.602,1,10,0,0,0
1,0.9293,0,10,1,0,0
1,0.709,1,10,0,0,0
1,0.8488,1,10,0,0,0
1,1.3619,1,10,1,0,0
1,0.5605,1,10,0,0,0
1,0.9496,1,10,1,0,0
1,0.6973,1,10,0,0,0
1,0.5708,1,10,0,0,0
1,1.1171,1,10,1,0,0
1,0.6311,1,10,0,0,0
1,1.4743,1,10,1,0,0
1,0.7513,1,10,0,0,0
1,0.6549,1,10,0,0,0
1,1.4037,1,10,1,0,0
1,0.9304,1,10,0,0,0
1,1.054,1,10,1,0,0
1,1.0848,1,10,1,0,0
1,0.6768,1,10,0,0,0
1,1.2228,1,10,1,0,0
1,0.7371,1,10,0,0,0
1,1.0801,1,10,1,0,0
1,0.7977,1,10,0,0,0
1,0.8281,1,10,0,0,0
1,1.374,1,10,1,0,0
1,0.8225,1,10,0,0,0
1,0.6961,1,10,0,0,0
1,0.8042,1,10,1,0,0
1,1.0536,1,10,1,0,0
1,0.6771,1,10,0,0,0
1,0.9884,1,10,1,0,0
1,0.9566,1,10,1,0,0
1,0.7839,1,10,0,0,0
1,1.1258,1,10,1,0,0
1,0.6253,1,10,0,0,0
1,1.1246,1,10,1,0,0
1,0.8576,1,10,0,0,0
1,1.1851,1,10,1,0,0
1,0.7939,1,10,0,0,0
1,1.2459,1,10,1,0,0
1,0.9791,1,10,1,0,0
1,0.8217,1,10,0,0,0
1,1.0184,1,10,1,0,0
1,0.829,1,10,0,0,0
1,0.9681,1,10,1,0,0
1,1.044,1,10,1,0,0
1,0.6831,1,10,0,0,0
1,1.0562,1,10,1,0,0
1,0.8838,1,10,1,0,0
1,0.7731,1,10,0,0,0
1,1.0373,1,10,1,0,0
1,0.9899,1,10,1,0,0
1,1.3278,1,10,1,0,0
1,1.026,1,10,0,0,0
1,1.4641,1,10,0,0,0
1,1.0995,0,10,1,0,0
1,0.749,1,10,0,0,0
1,0.919,1,10,1,0,0
1,1.1518,1,10,1,0,0
1,0.8058,1,10,0,0,0
1,0.8831,1,10,0,0,0
1,0.959,1,10,1,0,0
1,0.7085,1,10,0,0,0
1,1.1451,1,10,0,0,0
1,1.0498,1,10,1,0,0
1,0.6107,1,10,0,0,0
1,0.9845,1,10,1,0,0
1,0.623,1,10,0,0,0
1,1.0596,1,10,1,0,0
1,0.8394,1,10,0,0,0
1,1.0108,1,10,0,0,0
1,1.0039,1,10,0,0,0
1,1.4868,1,10,1,0,0
1,0.6541,1,10,0,0,0
1,1.2931,1,10,1,0,0
1,1.2141,1,10,1,0,0
1,0.7448,1,10,0,0,0
1,1.2281,1,10,1,0,0
1,0.8212,1,10,0,0,0
1,1.1635,1,10,1,0,0
1,0.6942,1,10,0,0,0
1,0.8499,1,10,1,0,0
1,1.1452,1,10,1,0,0
1,0.7218,1,10,0,0,0
1,1.3453,1,10,0,0,0
1,1.1173,1,10,0,0,0
1,1.1616,1,10,1,0,0
1,1.3633,1,10,0,0,0
1,1.228,1,10,1,0,0
1,0.7431,1,10,0,0,0
1,0.7523,1,10,0,0,0
1,1.2092,0,10,1,0,0
1,0.8015,1,10,0,0,0
1,1.4395,1,10,1,0,0
1,0.7162,1,10,0,0,0
1,1.0893,1,10,1,0,0
1,0.8222,1,10,0,0,0
1,1.1338,1,10,1,0,0
1,0.9757,1,10,0,0,0
1,1.0682,1,10,1,0,0
1,1.0049,1,10,1,0,0
1,0.6752,1,10,0,0,0
1,1.0642,1,10,1,0,0
1,1.2357,1,10,1,0,0
1,0.6095,1,10,0,0,0
1,1.0925,1,10,1,0,0
1,0.732,1,10,0,0,0
1,0.8551,1,10,1,0,0
1,0.8387,1,10,1,0,0
1,0.8378,1,10,0,0,0
1,1.1184,1,10,1,0,0
1,1.3633,1,10,1,0,0
1,0.9521,1,10,1,0,0
1,1.076,1,10,0,0,0
1,1.091,1,10,1,0,0
1,0.9128,1,10,0,0,0
1,0.9825,0,10,1,1,1
1,1.2281,1,10,1,1,0
1,0.7912,1,10,0,1,0
1,1.0242,1,10,1,1,0
1,1.3488,0,10,1,1,0
1,0.7687,1,10,0,1,0
1,1.1884,1,10,1,1,0
1,0.8588,1,10,0,1,0
1,0.8267,1,10,1,1,0
1,0.7793,1,10,0,1,0
1,1.1215,1,10,1,1,0
1,0.8241,1,10,1,1,0
1,0.6986,1,10,0,1,0
1,0.8991,1,10,1,1,0
1,0.8192,1,10,0,1,0
1,0.662,1,10,0,1,0
1,0.9581,1,10,1,1,0
1,0.9878,0,10,1,1,0
1,0.7207,1,10,0,1,0
1,1.1733,1,10,1,1,0
1,1.1884,1,10,1,1,0
1,0.7494,1,10,0,1,0
1,0.7628,1,10,1,1,0
1,0.5895,1,10,0,1,0
1,0.8545,1,10,1,1,0
1,0.5874,1,10,0,1,0
1,1.0709,1,10,1,1,0
1,0.9454,1,10,1,1,0
1,0.6789,1,10,0,1,0
1,0.8815,1,10,1,1,0
1,0.6296,1,10,0,1,0
1,0.8476,1,10,1,1,0
1,0.7526,1,10,0,1,0
1,0.6892,1,10,0,1,0
1,1.3912,0,10,1,1,0
1,0.6213,1,10,0,1,0
1,0.9323,0,10,1,1,0
1,0.8366,1,10,1,1,0
1,0.7102,1,10,0,1,0
1,1.0687,1,10,1,1,0
1,0.5981,1,10,0,1,0
1,0.9708,1,10,1,1,0
1,0.8137,1,10,1,1,0
1,0.5937,1,10,0,1,0
1,0.7645,1,10,1,1,0
1,0.9973,1,10,1,1,0
1,0.7149,1,10,0,1,0
1,1.2751,1,10,1,1,0
1,0.8205,1,10,0,1,0
1,0.8669,1,10,1,1,0
1,0.5684,1,10,0,1,0
1,1.0974,1,10,1,1,0
1,1.3938,1,10,1,1,0
1,0.6083,1,10,0,1,0
1,0.9664,1,10,1,1,0
1,0.8857,1,10,1,1,0
1,1.088,1,10,0,1,0
1,0.7275,1,10,0,1,0
1,1.4294,1,10,1,1,0
1,0.9717,1,10,1,1,0
1,0.6737,1,10,0,1,0
1,0.6409,1,10,0,1,0
1,1.2966,1,10,1,1,0
1,0.9048,1,10,0,1,0
1,0.6325,1,10,0,1,0
1,0.7715,0,10,1,1,0
1,0.5831,1,10,0,1,0
1,0.7688,1,10,1,1,0
1,0.6568,1,10,0,1,0
1,0.8594,1,10,1,1,0
1,0.7027,1,10,0,1,0
1,1.1705,1,10,1,1,0
1,0.5751,1,10,0,1,0
1,0.8866,1,10,1,1,0
1,0.5257,1,10,0,1,0
1,0.6964,1,10,0,1,0
1,0.8355,1,10,1,1,0
1,0.8344,1,10,1,1,0
1,0.6922,1,10,0,1,0
1,0.5666,1,10,0,1,0
1,0.8456,0,10,1,1,0
1,0.6888,1,10,0,1,0
1,0.6258,1,10,0,1,0
1,1.0155,1,10,1,1,0
1,0.7317,1,10,0,1,0
1,1.0737,1,10,1,1,0
1,0.6817,1,10,0,1,0
1,0.6328,1,10,0,1,0
1,0.7709,1,10,1,1,0
1,0.5044,1,10,0,1,0
1,0.5976,1,10,0,1,0
1,0.9555,1,10,1,1,0
1,0.5639,1,10,0,1,0
1,0.4693,1,10,0,1,0
1,1.0307,1,10,1,1,0
1,0.4519,1,10,0,1,0
1,0.7157,1,10,0,1,0
1,0.8541,1,10,1,1,0
1,0.9161,0,10,1,1,0
1,0.6177,1,10,0,1,0
1,0.5998,1,10,0,1,0
1,1.1138,1,10,1,1,0
1,0.5821,1,10,0,1,0
1,0.8607,1,10,1,1,0
1,0.6878,1,10,0,1,0
1,0.6244,1,10,0,1,0
1,1.2637,0,10,1,1,0
1,0.6692,1,10,0,1,0
1,0.8494,1,10,1,1,0
1,0.6967,1,10,0,1,0
1,0.6021,1,10,0,1,0
1,1.0856,1,10,1,1,0
1,0.8816,1,10,1,1,0
1,0.5676,1,10,0,1,0
1,0.9406,0,10,1,1,0
1,0.7051,1,10,0,1,0
1,1.1724,1,10,1,1,0
1,0.6875,1,10,0,1,0
1,0.9209,1,10,1,1,0
1,0.6225,1,10,0,1,0
1,0.9179,1,10,1,1,0
1,0.5876,1,10,0,1,0
1,1.0086,1,10,1,1,0
1,0.6947,1,10,0,1,0
1,0.9127,1,10,1,1,0
1,0.6147,1,10,0,1,0
1,0.6597,1,10,0,1,0
1,0.8459,1,10,1,1,0
1,0.8299,1,10,0,1,0
1,1.313,1,10,1,1,0
1,0.7144,1,10,0,1,0
1,0.8076,1,10,1,1,0
1,0.6508,1,10,0,1,0
1,0.7267,1,10,0,1,0
1,1.3661,1,10,1,1,0
1,0.9858,1,10,1,1,0
1,0.7195,1,10,0,1,0
1,0.828,1,10,1,1,0
1,0.8577,1,10,0,1,0
1,0.5906,1,10,0,1,0
1,1.0116,1,10,1,1,0
1,1.401,1,10,1,1,0
1,0.5523,1,10,0,1,0
1,0.919504009,1,11,0,0,1
1,1.112802872,1,11,1,0,0
1,0.660771777,1,11,0,0,0
1,0.692918092,1,11,0,0,0
1,0.833056015,1,11,1,0,0
1,0.541271898,1,11,0,0,0
1,0.515805871,1,11,0,0,0
1,1.282072776,1,11,1,0,0
1,0.718982209,1,11,1,0,0
1,0.457573509,1,11,0,0,0
1,0.471916621,1,11,0,0,0
1,0.946108792,1,11,1,0,0
1,0.764808054,1,11,1,0,0
1,0.901626385,1,11,0,0,0
1,0.499793016,1,11,0,0,0
1,0.694526394,1,11,1,0,0
1,0.468736511,1,11,0,0,0
1,0.907285284,1,11,1,0,0
1,0.481790851,1,11,0,0,0
1,0.614958909,1,11,0,0,0
1,0.598604828,1,11,1,0,0
1,0.540795211,1,11,0,0,0
1,0.664275018,1,11,1,0,0
1,0.656907884,1,11,0,0,0
1,0.567445132,1,11,0,0,0
1,0.634274701,1,11,1,0,0
1,0.45748185,1,11,0,0,0
1,0.669022521,1,11,1,0,0
1,0.439356326,1,11,0,0,0
1,0.461623641,1,11,0,0,0
1,1.106788157,1,11,1,0,0
1,0.553415421,1,11,0,0,0
1,0.629506738,1,11,1,0,0
1,0.781157478,1,11,1,0,0
1,0.473538922,1,11,0,0,0
1,0.702813499,1,11,1,0,0
1,0.556860643,1,11,0,0,0
1,1.050242291,1,11,1,0,0
1,0.698991267,1,11,0,0,0
1,0.547412171,1,11,0,0,0
1,0.648042511,1,11,1,0,0
1,0.557297304,1,11,0,0,0
1,0.467943536,1,11,0,0,0
1,0.651781539,1,11,1,0,0
1,0.890927202,1,11,1,0,0
1,0.538633181,1,11,0,0,0
1,0.995062336,1,11,1,0,0
1,0.921163466,1,11,1,0,0
1,0.526978088,1,11,0,0,0
1,0.757939145,1,11,1,0,0
1,0.504666032,1,11,0,0,0
1,0.84546845,1,11,1,0,0
1,0.549018047,1,11,0,0,0
1,0.877116125,1,11,1,0,0
1,0.52251077,1,11,0,0,0
1,0.881324899,1,11,1,0,0
1,0.738954895,1,11,1,0,0
1,0.531203577,1,11,0,0,0
1,0.745301662,1,11,1,0,0
1,0.839305674,1,11,1,0,0
1,0.463800421,1,11,0,0,0
1,0.724444854,1,11,1,0,0
1,0.707032497,1,11,1,0,0
1,0.528823791,1,11,0,0,0
1,0.709838593,1,11,1,0,0
1,0.569675093,1,11,1,0,0
1,0.614640646,1,11,0,0,0
1,0.640913765,1,11,1,0,0
1,0.818331167,1,11,1,0,0
1,0.617924641,1,11,0,0,0
1,0.60791813,1,11,1,0,0
1,0.48325578,1,11,0,0,0
1,0.487867417,1,11,0,0,0
1,0.968905402,1,11,1,0,0
1,0.480464254,1,11,0,0,0
1,0.456649409,1,11,0,0,0
1,0.79128767,1,11,1,0,0
1,0.449761324,1,11,0,0,0
1,0.569330387,1,11,0,0,0
1,0.626036603,1,11,1,0,0
1,0.763599593,1,11,1,0,0
1,0.534844392,1,11,0,0,0
1,0.747175305,1,11,0,0,0
1,0.808664289,1,11,1,0,0
1,0.493983789,1,11,0,0,0
1,0.492866678,1,11,0,0,0
1,0.690827759,1,11,1,0,0
1,0.45654996,1,11,0,0,0
1,0.729767304,1,11,1,0,0
1,0.537504034,1,11,0,0,0
1,0.648348498,1,11,1,0,0
1,0.45229271,1,11,0,0,0
1,0.867593117,1,11,1,0,0
1,0.536040965,1,11,0,0,0
1,0.875594624,1,11,0,0,0
1,1.123032324,1,11,1,0,0
1,0.487680696,1,11,0,0,0
1,0.652265882,1,11,1,0,0
1,0.588597558,1,11,0,0,0
1,0.699923886,1,11,1,0,0
1,0.59158709,1,11,0,0,0
1,0.844268951,1,11,1,0,0
1,0.498137789,1,11,0,0,0
1,0.633713886,1,11,1,0,0
1,0.884345362,1,11,1,0,0
1,0.472038345,1,11,0,0,0
1,0.486271403,1,11,0,0,0
1,0.774582925,1,11,1,0,0
1,0.48624841,1,11,0,0,0
1,0.756265208,1,11,1,0,0
1,0.474687056,1,11,0,0,0
1,0.433363462,1,11,0,0,0
1,0.621053296,1,11,1,0,0
1,0.49754807,1,11,0,0,0
1,0.579127844,1,11,0,0,0
1,0.76009146,1,11,1,0,0
1,0.44062323,1,11,0,0,0
1,0.656618249,1,11,1,0,0
1,0.431460741,1,11,0,0,0
1,0.706479875,1,11,1,0,0
1,0.498280098,1,11,0,0,0
1,0.821130839,1,11,1,0,0
1,0.599785359,1,11,0,0,0
1,0.649361258,1,11,1,0,0
1,0.774219019,1,11,1,0,0
1,0.591940564,1,11,0,0,0
1,1.385666327,1,11,1,0,0
1,1.225594598,1,11,1,0,0
1,0.673295591,1,11,0,0,0
1,0.685424491,1,11,1,0,0
1,0.524518197,1,11,0,0,0
1,0.632260772,1,11,1,0,0
1,0.521307811,1,11,1,0,0
1,0.523675866,1,11,0,0,0
1,0.601961668,1,11,1,0,0
1,0.695343987,1,11,0,0,0
1,0.98341281,1,11,1,0,0
1,0.762684662,1,11,1,0,0
1,0.570230371,1,11,0,0,0
1,0.84789895,1,11,1,0,0
1,0.792751504,1,11,1,0,0
1,0.659301566,1,11,0,0,0
1,0.863620979,1,11,1,0,0
1,0.890131376,1,11,1,1,1
1,0.787015338,1,11,1,1,0
1,0.604082762,1,11,0,1,0
1,1.030593421,1,11,1,1,0
1,0.690264506,1,11,1,1,0
1,0.652972743,1,11,0,1,0
1,0.713796092,1,11,1,1,0
1,0.729641744,1,11,0,1,0
1,0.703567667,1,11,1,1,0
1,0.529197563,1,11,0,1,0
1,0.940187813,1,11,1,1,0
1,0.676438746,1,11,1,1,0
1,0.732016892,1,11,0,1,0
1,0.751325122,1,11,1,1,0
1,0.619733284,1,11,0,1,0
1,0.529617318,1,11,0,1,0
1,0.698389335,1,11,1,1,0
1,1.176352921,1,11,1,1,0
1,0.71075898,1,11,0,1,0
1,0.714230404,1,11,1,1,0
1,0.742360323,1,11,1,1,0
1,0.54832292,1,11,0,1,0
1,0.875906608,1,11,1,1,0
1,0.577493526,1,11,0,1,0
1,0.721834298,1,11,1,1,0
1,0.559514363,1,11,0,1,0
1,0.810973893,1,11,1,1,0
1,0.870514536,1,11,1,1,0
1,0.739771345,1,11,0,1,0
1,0.678466572,1,11,1,1,0
1,0.571141707,1,11,0,1,0
1,0.825139909,1,11,1,1,0
1,0.665368557,1,11,0,1,0
1,0.785083007,1,11,0,1,0
1,0.962144907,1,11,1,1,0
1,0.608095562,1,11,0,1,0
1,0.7870036,1,11,1,1,0
1,1.111718223,1,11,1,1,0
1,0.552582531,1,11,0,1,0
1,0.6383728,1,11,1,1,0
1,0.524868869,1,11,0,1,0
1,1.071961735,1,11,1,1,0
1,0.782453707,1,11,1,1,0
1,0.585420438,1,11,0,1,0
1,0.87817572,1,11,1,1,0
1,0.741525102,1,11,1,1,0
1,0.551549937,1,11,0,1,0
1,0.63724482,1,11,1,1,0
1,0.504802639,1,11,0,1,0
1,0.754386546,1,11,1,1,0
1,0.540987411,1,11,0,1,0
1,0.958512114,1,11,1,1,0
1,0.860112924,1,11,1,1,0
1,0.512505416,1,11,0,1,0
1,0.816696982,1,11,1,1,0
1,0.641417314,1,11,1,1,0
1,0.508719714,1,11,0,1,0
1,0.485674655,1,11,0,1,0
1,0.731038831,1,11,1,1,0
1,0.561651268,1,11,1,1,0
1,0.539253103,1,11,0,1,0
1,0.52832461,1,11,0,1,0
1,0.589400536,1,11,1,1,0
1,0.514135068,1,11,0,1,0
1,0.792381339,1,11,1,1,0
1,0.497417584,1,11,0,1,0
1,0.774301187,1,11,1,1,0
1,0.518097891,1,11,0,1,0
1,0.701270015,1,11,1,1,0
1,0.544177741,1,11,0,1,0
1,0.640131184,1,11,1,1,0
1,0.500102279,1,11,0,1,0
1,0.779485401,1,11,1,1,0
1,0.518694607,1,11,0,1,0
1,0.764785158,1,11,1,1,0
1,0.459868552,1,11,0,1,0
1,0.475522384,1,11,0,1,0
1,0.606247372,1,11,1,1,0
1,0.900363389,1,11,1,1,0
1,0.544316801,1,11,0,1,0
1,0.503036588,1,11,0,1,0
1,0.87304712,1,11,1,1,0
1,0.537422456,1,11,0,1,0
1,0.462945205,1,11,0,1,0
1,0.65615165,1,11,1,1,0
1,0.473204303,1,11,0,1,0
1,0.737651412,1,11,1,1,0
1,0.464497575,1,11,0,1,0
1,0.471471289,1,11,0,1,0
1,0.598461037,1,11,1,1,0
1,0.476728859,1,11,0,1,0
1,0.516353115,1,11,0,1,0
1,0.905032115,1,11,1,1,0
1,0.457682176,1,11,0,1,0
1,0.398594315,1,11,0,1,0
1,0.75143583,1,11,1,1,0
1,0.433146424,1,11,0,1,0
1,0.41979277,1,11,0,1,0
1,0.675545436,1,11,1,1,0
1,0.722541138,1,11,1,1,0
1,0.867472022,1,11,0,1,0
1,0.595064603,1,11,0,1,0
1,0.650614978,1,11,1,1,0
1,0.456440336,1,11,0,1,0
1,0.66421005,1,11,1,1,0
1,0.533498043,1,11,0,1,0
1,0.478175431,1,11,0,1,0
1,0.704162669,1,11,1,1,0
1,0.518230047,1,11,0,1,0
1,0.631860355,1,11,1,1,0
1,0.487169314,1,11,0,1,0
1,0.468306559,1,11,0,1,0
1,0.750346202,1,11,1,1,0
1,0.863539213,1,11,1,1,0
1,0.523620688,1,11,0,1,0
1,0.782819552,1,11,1,1,0
1,0.482946952,1,11,0,1,0
1,0.622192459,1,11,1,1,0
1,0.52810599,1,11,0,1,0
1,0.651503298,1,11,1,1,0
1,0.461948484,1,11,0,1,0
1,0.686676004,1,11,1,1,0
1,0.463500405,1,11,0,1,0
1,0.691895185,1,11,1,1,0
1,0.498176095,1,11,0,1,0
1,0.563947864,1,11,1,1,0
1,0.573638367,1,11,0,1,0
1,0.479241524,1,11,0,1,0
1,0.973813041,1,11,1,1,0
1,0.650435058,1,11,0,1,0
1,0.751734216,1,11,1,1,0
1,0.726027383,1,11,0,1,0
1,1.027873553,1,11,1,1,0
1,0.535478562,1,11,0,1,0
1,0.710491122,1,11,0,1,0
1,1.123058109,1,11,1,1,0
1,0.632970476,1,11,1,1,0
1,0.569564494,1,11,0,1,0
1,0.571851522,1,11,1,1,0
1,0.52371229,1,11,0,1,0
1,0.46289871,1,11,0,1,0
1,0.707513071,1,11,1,1,0
1,0.97509635,1,11,1,1,0
1,0.55352476,1,11,0,1,0
1,0.656156533,1,12,0,0,1
1,0.859634063,1,12,1,0,0
1,0.51710126,1,12,0,0,0
1,0.609079596,1,12,0,0,0
1,0.955367471,1,12,1,0,0
1,0.600813759,1,12,0,0,0
1,0.586436586,1,12,0,0,0
1,1.072139235,1,12,1,0,0
1,0.817046398,1,12,1,0,0
1,0.555975761,1,12,0,0,0
1,0.59444094,1,12,0,0,0
1,1.262307412,1,12,1,0,0
1,0.841602543,1,12,1,0,0
1,0.631831514,1,12,0,0,0
1,0.569768957,1,12,0,0,0
1,0.659263371,0,12,1,0,0
1,0.564211069,1,12,0,0,0
1,0.973944972,1,12,1,0,0
1,0.597563851,1,12,0,0,0
1,0.543295692,1,12,0,0,0
1,0.79474399,1,12,1,0,0
1,0.509477912,1,12,0,0,0
1,0.800948811,1,12,1,0,0
1,0.748684863,1,12,0,0,0
1,0.488897062,1,12,0,0,0
1,0.683888844,1,12,1,0,0
1,0.571365458,1,12,0,0,0
1,0.785206889,1,12,1,0,0
1,0.566899638,1,12,0,0,0
1,0.578405097,1,12,0,0,0
1,0.891845392,1,12,1,0,0
1,0.597875047,1,12,0,0,0
1,0.819932369,1,12,1,0,0
1,0.796789646,1,12,1,0,0
1,0.556436676,1,12,0,0,0
1,0.782862124,1,12,1,0,0
1,0.586754935,1,12,0,0,0
1,0.975823048,1,12,1,0,0
1,0.733041032,1,12,0,0,0
1,0.637289752,1,12,0,0,0
1,0.751305245,1,12,1,0,0
1,0.659585861,1,12,0,0,0
1,0.671506564,1,12,0,0,0
1,0.750081164,1,12,1,0,0
1,0.772320134,1,12,1,0,0
1,0.601059114,1,12,0,0,0
1,1.271843128,1,12,1,0,0
1,0.811655305,1,12,1,0,0
1,0.612100573,1,12,0,0,0
1,0.776453493,1,12,1,0,0
1,0.556479706,1,12,0,0,0
1,0.775888485,1,12,1,0,0
1,0.549600554,1,12,0,0,0
1,0.832770136,1,12,1,0,0
1,0.593317072,1,12,0,0,0
1,1.003393902,1,12,1,0,0
1,0.747868294,1,12,1,0,0
1,0.613640566,1,12,0,0,0
1,0.715338717,1,12,1,0,0
1,0.95452086,1,12,1,0,0
1,0.572812982,1,12,0,0,0
1,0.806342924,1,12,1,0,0
1,0.740670532,1,12,1,0,0
1,0.58810135,1,12,0,0,0
1,0.729261394,1,12,1,0,0
1,0.70944522,1,12,1,0,0
1,0.504164803,1,12,0,0,0
1,0.821785459,1,12,1,0,0
1,0.821049873,1,12,1,0,0
1,0.572386441,1,12,0,0,0
1,0.779850616,1,12,1,0,0
1,0.563054314,1,12,0,0,0
1,0.924114875,1,12,0,0,0
1,0.906047785,1,12,1,0,0
1,0.589565335,1,12,0,0,0
1,0.589001553,1,12,0,0,0
1,0.760104381,1,12,1,0,0
1,0.584574637,1,12,0,0,0
1,0.60657223,1,12,0,0,0
1,0.746533361,1,12,1,0,0
1,0.763260717,1,12,1,0,0
1,0.516108544,1,12,0,0,0
1,0.661141949,1,12,0,0,0
1,0.574526589,1,12,1,0,0
1,0.491377458,1,12,0,0,0
1,0.48724228,1,12,0,0,0
1,0.876322026,1,12,1,0,0
1,0.531680278,1,12,0,0,0
1,0.69613557,1,12,1,0,0
1,0.51747435,1,12,0,0,0
1,0.582869826,1,12,1,0,0
1,0.493394401,1,12,0,0,0
1,0.779203284,1,12,1,0,0
1,0.595228585,1,12,0,0,0
1,0.923606091,1,12,0,0,0
1,0.717490796,1,12,1,0,0
1,0.577707129,1,12,0,0,0
1,0.793875725,1,12,1,0,0
1,0.8806555,1,12,1,0,0
1,0.680242979,1,12,0,0,0
1,0.885393192,1,12,1,0,0
1,0.831447165,1,12,0,0,0
1,0.669412873,1,12,1,0,0
1,0.525020977,1,12,0,0,0
1,0.743363875,1,12,1,0,0
1,0.533145575,0,12,1,0,0
1,0.691487593,1,12,0,0,0
1,0.558185363,1,12,0,0,0
1,1.475664352,1,12,1,0,0
1,0.578248596,1,12,0,0,0
1,0.811711132,1,12,1,0,0
1,0.491706455,1,12,0,0,0
1,0.482356773,1,12,0,0,0
1,1.042497653,1,12,1,0,0
1,0.929073171,1,12,0,0,0
1,0.663124561,1,12,0,0,0
1,0.924538939,1,12,1,0,0
1,0.528947175,1,12,0,0,0
1,0.886225233,1,12,1,0,0
1,0.586860176,1,12,0,0,0
1,0.910791014,1,12,1,0,0
1,0.532063401,1,12,0,0,0
1,0.840756091,1,12,1,0,0
1,0.642463354,1,12,0,0,0
1,0.82421117,1,12,1,0,0
1,1.048898356,1,12,1,0,0
1,0.528770815,1,12,0,0,0
1,0.853433985,1,12,1,0,0
1,0.751324061,1,12,1,0,0
1,0.590301635,1,12,0,0,0
1,0.670813996,1,12,1,0,0
1,0.602947896,1,12,0,0,0
1,0.630792898,1,12,1,0,0
1,0.596169151,1,12,1,0,0
1,0.614609487,1,12,0,0,0
1,0.887298575,1,12,1,0,0
1,0.558758397,1,12,0,0,0
1,0.785656857,1,12,1,0,0
1,0.863458624,1,12,1,0,0
1,0.482998734,1,12,0,0,0
1,0.653641681,1,12,1,0,0
1,0.710482297,1,12,1,0,0
1,0.601093789,1,12,0,0,0
1,0.754969011,1,12,1,0,0
1,1.207041846,1,12,1,1,1
1,0.824135361,1,12,1,1,0
1,0.638758516,1,12,0,1,0
1,0.810997975,1,12,1,1,0
1,0.941276333,0,12,1,1,0
1,0.722344337,1,12,0,1,0
1,0.676940938,1,12,1,1,0
1,0.663765018,1,12,0,1,0
1,0.731464823,1,12,1,1,0
1,0.590959078,1,12,0,1,0
1,0.953400284,1,12,1,1,0
1,0.902379119,1,12,1,1,0
1,0.630916301,1,12,0,1,0
1,0.670464946,1,12,1,1,0
1,0.553132308,1,12,0,1,0
1,0.623545633,1,12,0,1,0
1,0.9147327,1,12,1,1,0
1,0.875023723,1,12,1,1,0
1,0.581817019,1,12,0,1,0
1,0.81490714,1,12,1,1,0
1,0.823503022,1,12,1,1,0
1,1.361307989,1,12,1,1,0
1,1.140246215,1,12,0,1,0
1,0.811711283,1,12,1,1,0
1,0.737475833,1,12,0,1,0
1,0.813210989,1,12,1,1,0
1,0.772160424,1,12,1,1,0
1,0.59146116,1,12,0,1,0
1,0.867597061,1,12,1,1,0
1,0.567672823,1,12,0,1,0
1,0.909792437,1,12,1,1,0
1,0.554911888,1,12,0,1,0
1,0.654097026,1,12,0,1,0
1,0.908836445,1,12,1,1,0
1,0.574839024,1,12,0,1,0
1,0.761897787,1,12,1,1,0
1,0.932318811,1,12,1,1,0
1,0.734640147,1,12,0,1,0
1,0.785086825,1,12,1,1,0
1,0.756367317,1,12,0,1,0
1,0.834381271,1,12,1,1,0
1,0.813817298,1,12,1,1,0
1,0.749919385,1,12,0,1,0
1,0.905591161,1,12,1,1,0
1,1.06418035,1,12,1,1,0
1,0.692167313,1,12,0,1,0
1,0.801510228,1,12,1,1,0
1,0.623188229,1,12,0,1,0
1,0.792366182,1,12,1,1,0
1,0.648194296,1,12,0,1,0
1,0.938540474,1,12,1,1,0
1,0.80559023,1,12,1,1,0
1,0.630917683,1,12,0,1,0
1,1.010415458,1,12,1,1,0
1,0.709078252,1,12,1,1,0
1,0.642537819,1,12,0,1,0
1,0.51189023,1,12,0,1,0
1,0.751386472,1,12,1,1,0
1,0.864549447,1,12,1,1,0
1,0.572059637,1,12,0,1,0
1,0.529992567,1,12,0,1,0
1,0.875794279,1,12,1,1,0
1,0.662922773,1,12,0,1,0
1,0.787143121,1,12,1,1,0
1,0.607543091,1,12,0,1,0
1,0.879504862,1,12,1,1,0
1,0.572836216,1,12,0,1,0
1,0.793303606,1,12,1,1,0
1,0.54434336,1,12,0,1,0
1,0.892791158,1,12,1,1,0
1,0.660771934,1,12,0,1,0
1,0.993060956,1,12,1,1,0
1,0.548852931,1,12,0,1,0
1,0.760508369,1,12,1,1,0
1,0.486841253,1,12,0,1,0
1,0.530999704,1,12,0,1,0
1,0.830782236,1,12,1,1,0
1,0.724882691,1,12,1,1,0
1,0.577604137,1,12,0,1,0
1,0.571752891,1,12,0,1,0
1,0.769751526,1,12,1,1,0
1,0.626666683,1,12,0,1,0
1,0.604527589,1,12,0,1,0
1,0.730978983,1,12,1,1,0
1,0.891536885,1,12,0,1,0
1,0.832786387,1,12,1,1,0
1,0.578995376,1,12,0,1,0
1,0.491060309,1,12,0,1,0
1,0.856666393,1,12,1,1,0
1,0.575297626,1,12,0,1,0
1,0.548089776,1,12,0,1,0
1,0.823849528,1,12,1,1,0
1,0.51698132,1,12,0,1,0
1,0.518148169,1,12,0,1,0
1,0.788783897,1,12,1,1,0
1,0.476198494,1,12,0,1,0
1,0.57481186,1,12,0,1,0
1,0.830609511,1,12,1,1,0
1,0.797784644,1,12,1,1,0
1,0.510366614,1,12,0,1,0
1,0.648686115,1,12,0,1,0
1,0.885989728,1,12,1,1,0
1,0.685363886,1,12,0,1,0
1,0.802730184,1,12,1,1,0
1,0.531877797,1,12,0,1,0
1,0.554942506,1,12,0,1,0
1,0.78302341,1,12,1,1,0
1,0.526274041,1,12,0,1,0
1,0.739262755,1,12,1,1,0
1,0.558336857,1,12,0,1,0
1,0.568326891,1,12,0,1,0
1,0.856100666,1,12,1,1,0
1,0.98362773,1,12,1,1,0
1,0.866585456,1,12,0,1,0
1,0.792891777,1,12,1,1,0
1,0.698659709,1,12,0,1,0
1,0.910815736,1,12,1,1,0
1,0.711370923,1,12,0,1,0
1,0.75720077,1,12,1,1,0
1,0.630231562,1,12,0,1,0
1,0.929305155,1,12,1,1,0
1,0.522069092,1,12,0,1,0
1,0.766269492,1,12,1,1,0
1,0.484953199,1,12,0,1,0
1,0.693073241,1,12,1,1,0
1,0.566314585,1,12,0,1,0
1,0.497419693,1,12,0,1,0
1,1.042220937,1,12,1,1,0
1,0.555613533,1,12,0,1,0
1,0.779033944,1,12,1,1,0
1,0.49412041,1,12,0,1,0
1,0.747246452,1,12,1,1,0
1,0.549023266,1,12,0,1,0
1,0.569374959,1,12,0,1,0
1,0.733832864,1,12,1,1,0
1,0.693336295,1,12,1,1,0
1,0.500692476,1,12,0,1,0
1,0.658980282,1,12,1,1,0
1,0.560854785,1,12,0,1,0
1,0.474323469,1,12,0,1,0
1,0.792061167,1,12,1,1,0
1,0.860374052,1,12,1,1,0
1,0.594617509,1,12,0,1,0
1,0.875517517,1,13,1,0,1
1,0.930056686,1,13,1,0,0
1,0.703247687,1,13,0,0,0
1,0.887791363,1,13,1,0,0
1,1.074237728,1,13,1,0,0
1,0.745528231,1,13,0,0,0
1,0.722217241,1,13,1,0,0
1,0.684739725,1,13,0,0,0
1,0.732152743,1,13,1,0,0
1,0.772885908,1,13,0,0,0
1,1.150124244,1,13,1,0,0
1,0.788662067,1,13,1,0,0
1,0.668039072,1,13,0,0,0
1,0.654314069,1,13,1,0,0
1,0.628393608,1,13,0,0,0
1,0.719347356,1,13,0,0,0
1,0.864053001,1,13,1,0,0
1,1.119145182,1,13,1,0,0
1,0.57060148,1,13,0,0,0
1,0.839372189,1,13,1,0,0
1,0.721398608,1,13,1,0,0
1,0.64092548,1,13,0,0,0
1,0.776426975,1,13,1,0,0
1,0.639751853,1,13,0,0,0
1,0.697507456,1,13,1,0,0
1,0.702027492,1,13,0,0,0
1,0.727246963,1,13,1,0,0
1,0.842678162,1,13,1,0,0
1,0.587157162,1,13,0,0,0
1,0.843653513,1,13,1,0,0
1,0.701705143,1,13,0,0,0
1,0.889890656,1,13,1,0,0
1,0.606086841,1,13,0,0,0
1,0.608002647,1,13,0,0,0
1,0.862505869,1,13,1,0,0
1,0.669976014,1,13,0,0,0
1,0.869365177,1,13,1,0,0
1,0.810179825,1,13,1,0,0
1,0.562143782,1,13,0,0,0
1,0.881907015,1,13,1,0,0
1,0.571735229,1,13,0,0,0
1,1.033250074,1,13,1,0,0
1,0.827186751,1,13,1,0,0
1,0.61318786,1,13,0,0,0
1,0.887735933,1,13,1,0,0
1,0.917267043,1,13,1,0,0
1,0.711020757,1,13,0,0,0
1,0.776524117,1,13,1,0,0
1,0.707697521,1,13,0,0,0
1,0.528844845,1,13,0,0,0
1,0.875674064,1,13,1,0,0
1,0.897731472,1,13,1,0,0
1,0.558763644,1,13,0,0,0
1,1.075968547,1,13,1,0,0
1,0.761776101,1,13,1,0,0
1,0.593941201,1,13,0,0,0
1,0.53330095,1,13,0,0,0
1,0.870380071,1,13,1,0,0
1,0.984957229,1,13,1,0,0
1,0.655705709,1,13,0,0,0
1,0.526304626,1,13,0,0,0
1,0.803924788,1,13,1,0,0
1,0.782468229,1,13,0,0,0
1,0.82716091,1,13,1,0,0
1,0.787363803,1,13,0,0,0
1,1.058359929,1,13,1,0,0
1,0.637730016,1,13,0,0,0
1,1.114288575,1,13,1,0,0
1,0.524810057,1,13,0,0,0
1,0.973157022,1,13,1,0,0
1,0.576863936,1,13,0,0,0
1,0.806701888,1,13,1,0,0
1,0.662308336,1,13,0,0,0
1,1.393794465,1,13,1,0,0
1,0.591715809,1,13,0,0,0
1,0.774622233,1,13,0,0,0
1,0.736539134,1,13,1,0,0
1,0.98209548,1,13,1,0,0
1,0.665043005,1,13,0,0,0
1,0.999106487,1,13,0,0,0
1,0.884612554,1,13,0,0,0
1,0.683030414,1,13,0,0,0
1,0.902656837,1,13,1,0,0
1,0.725459541,1,13,0,0,0
1,0.986264652,1,13,1,0,0
1,0.767971142,1,13,0,0,0
1,0.696651484,1,13,0,0,0
1,0.845327378,1,13,1,0,0
1,0.715582424,1,13,0,0,0
1,0.806790362,1,13,0,0,0
1,0.968400623,0,13,1,0,0
1,0.635683574,1,13,0,0,0
1,0.52518395,1,13,0,0,0
1,1.077095773,1,13,1,0,0
1,0.54829001,1,13,0,0,0
1,0.710178852,1,13,0,0,0
1,1.0868453,1,13,1,0,0
1,0.936725927,1,13,1,0,0
1,0.59802098,1,13,0,0,0
1,0.586897192,1,13,0,0,0
1,0.897243535,1,13,1,0,0
1,0.638988465,1,13,0,0,0
1,0.87692208,1,13,1,0,0
1,0.577783702,1,13,0,0,0
1,0.481498878,1,13,0,0,0
1,1.117523047,1,13,1,0,0
1,0.682381431,1,13,0,0,0
1,1.142580576,1,13,1,0,0
1,0.887341127,1,13,0,0,0
1,0.685345312,1,13,0,0,0
1,0.656030082,1,13,1,0,0
1,0.943480957,1,13,1,0,0
1,0.85934056,1,13,0,0,0
1,1.098712459,1,13,1,0,0
1,0.751040553,1,13,0,0,0
1,0.865811191,1,13,1,0,0
1,0.776934241,1,13,0,0,0
1,0.668584684,1,13,1,0,0
1,0.651981489,1,13,0,0,0
1,0.813872354,1,13,1,0,0
1,0.794742951,1,13,0,0,0
1,1.246531186,1,13,1,0,0
1,0.759687702,1,13,0,0,0
1,0.871516778,1,13,1,0,0
1,0.699744185,1,13,0,0,0
1,0.593147866,1,13,0,0,0
1,0.813469352,1,13,1,0,0
1,0.704314005,1,13,0,0,0
1,1.11704221,1,13,1,0,0
1,0.651616449,1,13,0,0,0
1,0.839790093,1,13,1,0,0
1,0.866500002,1,13,0,0,0
1,0.670104877,1,13,0,0,0
1,0.96037089,1,13,1,0,0
1,0.871715314,1,13,1,0,0
1,0.584239008,1,13,0,0,0
1,0.961612735,1,13,1,0,0
1,1.200429841,1,13,0,0,0
1,1.057150684,1,13,0,0,0
1,0.954991892,1,13,1,0,0
1,1.41596447,1,13,1,0,0
1,0.768179126,1,13,0,1,1
1,0.777609712,1,13,1,1,0
1,0.536588377,1,13,0,1,0
1,0.554490165,1,13,0,1,0
1,0.827694215,1,13,1,1,0
1,0.513348665,1,13,0,1,0
1,0.745740961,1,13,0,1,0
1,0.941812431,1,13,1,1,0
1,0.946894926,1,13,1,1,0
1,0.544988561,1,13,0,1,0
1,0.637337992,1,13,0,1,0
1,0.951354347,1,13,1,1,0
1,0.864470288,1,13,1,1,0
1,0.748293124,1,13,0,1,0
1,0.56720897,1,13,0,1,0
1,0.772710133,1,13,1,1,0
1,0.62243708,1,13,0,1,0
1,0.851941207,1,13,1,1,0
1,0.681239494,1,13,0,1,0
1,0.632281346,1,13,0,1,0
1,0.830319843,1,13,1,1,0
1,0.527062351,1,13,0,1,0
1,0.929133742,1,13,1,1,0
1,0.679485784,1,13,0,1,0
1,0.648394874,1,13,0,1,0
1,0.701830624,1,13,1,1,0
1,0.513376049,1,13,0,1,0
1,0.91259464,1,13,1,1,0
1,0.621395896,1,13,0,1,0
1,0.584209169,1,13,0,1,0
1,1.010952492,1,13,1,1,0
1,0.67929035,1,13,0,1,0
1,0.859440544,1,13,1,1,0
1,0.755972024,1,13,1,1,0
1,0.584655641,1,13,0,1,0
1,0.821123027,1,13,1,1,0
1,0.54233327,1,13,0,1,0
1,0.880568284,1,13,1,1,0
1,0.805417841,1,13,0,1,0
1,0.585074741,1,13,0,1,0
1,0.86218211,1,13,1,1,0
1,0.690060911,1,13,0,1,0
1,0.569403708,1,13,0,1,0
1,0.866717053,1,13,1,1,0
1,1.118429698,1,13,1,1,0
1,0.585360573,1,13,0,1,0
1,0.904352334,1,13,1,1,0
1,1.151632617,1,13,1,1,0
1,0.599362205,1,13,0,1,0
1,0.765653484,1,13,1,1,0
1,0.5842546,1,13,0,1,0
1,0.805327986,1,13,1,1,0
1,0.68381703,1,13,0,1,0
1,0.959693134,1,13,1,1,0
1,0.557918822,1,13,0,1,0
1,0.818121402,1,13,1,1,0
1,0.662947428,1,13,1,1,0
1,0.512271844,1,13,0,1,0
1,0.860861634,1,13,1,1,0
1,0.996516681,1,13,1,1,0
1,0.674951448,1,13,0,1,0
1,1.057213385,1,13,1,1,0
1,1.09137782,1,13,1,1,0
1,0.574778462,1,13,0,1,0
1,0.753090836,1,13,1,1,0
1,0.525901422,1,13,1,1,0
1,0.59645599,1,13,0,1,0
1,0.681639296,1,13,1,1,0
1,0.815388437,1,13,1,1,0
1,0.613665162,1,13,0,1,0
1,0.911362703,1,13,1,1,0
1,0.539408611,1,13,0,1,0
1,0.572482805,1,13,0,1,0
1,0.685995266,1,13,1,1,0
1,0.678552537,1,13,0,1,0
1,0.512916038,1,13,0,1,0
1,0.725857643,0,13,1,1,0
1,0.763337456,1,13,0,1,0
1,0.658310818,1,13,0,1,0
1,0.816480949,1,13,1,1,0
1,0.920844713,1,13,1,1,0
1,0.684145662,1,13,0,1,0
1,0.702343427,1,13,0,1,0
1,0.837083188,1,13,1,1,0
1,0.696649061,1,13,0,1,0
1,0.651165635,1,13,0,1,0
1,0.793370384,1,13,1,1,0
1,0.544133347,1,13,0,1,0
1,0.636829626,1,13,1,1,0
1,0.639170626,1,13,0,1,0
1,0.716879301,1,13,1,1,0
1,0.589813896,1,13,0,1,0
1,0.913273107,1,13,1,1,0
1,0.563911757,1,13,0,1,0
1,0.63741969,1,13,0,1,0
1,0.881321189,1,13,1,1,0
1,0.594163138,1,13,0,1,0
1,1.009561265,1,13,1,1,0
1,0.842043452,1,13,1,1,0
1,0.64350369,1,13,0,1,0
1,0.934185816,1,13,1,1,0
1,0.803255293,1,13,0,1,0
1,1.136793421,1,13,1,1,0
1,0.687274307,1,13,0,1,0
1,0.97279362,1,13,1,1,0
1,1.223303638,1,13,1,1,0
1,0.741240023,1,13,0,1,0
1,0.764847814,1,13,0,1,0
1,0.839967152,1,13,1,1,0
1,0.578105723,1,13,0,1,0
1,0.984180683,1,13,1,1,0
1,0.614254768,1,13,0,1,0
1,0.651953408,1,13,0,1,0
1,0.81602777,1,13,1,1,0
1,0.64641405,1,13,0,1,0
1,0.627621495,1,13,0,1,0
1,0.919532273,1,13,1,1,0
1,0.695324066,1,13,0,1,0
1,0.813657025,1,13,1,1,0
1,0.578281597,1,13,0,1,0
1,1.193705709,1,13,1,1,0
1,0.595848176,1,13,0,1,0
1,1.092742808,1,13,1,1,0
1,0.821393064,1,13,0,1,0
1,0.730102457,1,13,1,1,0
1,0.937022646,1,13,1,1,0
1,0.530430869,1,13,0,1,0
1,0.910544126,1,13,1,1,0
1,0.857036696,1,13,1,1,0
1,0.79251934,1,13,0,1,0
1,0.761847704,1,13,1,1,0
1,0.538723676,1,13,0,1,0
1,0.632971273,1,13,1,1,0
1,0.717922844,1,13,1,1,0
1,0.686622625,1,13,0,1,0
1,0.985181752,1,13,1,1,0
1,0.563531416,1,13,0,1,0
1,0.824983018,1,13,1,1,0
1,0.790169591,1,13,1,1,0
1,0.619859509,1,13,0,1,0
1,0.968699849,1,13,1,1,0
1,0.906636689,1,13,1,1,0
1,0.53045493,1,13,0,1,0
1,0.873748445,1,13,1,1,0
1,1.022354158,1,14,1,0,1
1,0.894475564,1,14,1,0,0
1,0.761107031,1,14,0,0,0
1,1.448121448,1,14,1,0,0
1,0.959073178,1,14,1,0,0
1,0.680765292,1,14,0,0,0
1,0.81690535,1,14,1,0,0
1,0.692404831,1,14,0,0,0
1,1.203097361,1,14,1,0,0
1,0.756594033,1,14,0,0,0
1,1.004384732,1,14,1,0,0
1,1.04912156,1,14,1,0,0
1,1.17290307,1,14,0,0,0
1,0.970689971,1,14,1,0,0
1,0.988703206,1,14,0,0,0
1,0.612005077,1,14,0,0,0
1,0.796314482,1,14,1,0,0
1,1.12194334,1,14,1,0,0
1,1.021915773,1,14,0,0,0
1,0.821861548,1,14,1,0,0
1,0.90076817,1,14,1,0,0
1,0.991063862,1,14,0,0,0
1,0.935261491,1,14,1,0,0
1,1.061739309,1,14,0,0,0
1,0.818591842,1,14,1,0,0
1,0.660927042,1,14,0,0,0
1,0.889453037,1,14,1,0,0
1,1.052195278,1,14,1,0,0
1,0.73345928,1,14,0,0,0
1,0.958837827,1,14,1,0,0
1,0.883630614,1,14,0,0,0
1,0.845097628,1,14,1,0,0
1,0.654910986,1,14,0,0,0
1,0.648813291,1,14,0,0,0
1,0.793245305,1,14,1,0,0
1,0.806214026,1,14,0,0,0
1,0.888351471,1,14,1,0,0
1,0.784242215,1,14,1,0,0
1,0.640441258,1,14,0,0,0
1,0.732422873,1,14,1,0,0
1,0.677110283,1,14,0,0,0
1,1.107426067,1,14,1,0,0
1,0.841383799,1,14,1,0,0
1,0.709071902,1,14,0,0,0
1,1.069795194,1,14,1,0,0
1,0.841466882,1,14,1,0,0
1,0.658874349,1,14,0,0,0
1,0.771771492,1,14,1,0,0
1,0.74665762,1,14,0,0,0
1,1.315439398,1,14,1,0,0
1,0.686084996,1,14,0,0,0
1,0.7839978,1,14,1,0,0
1,0.619339778,1,14,0,0,0
1,0.917599234,1,14,1,0,0
1,0.743325499,1,14,1,0,0
1,0.633526975,1,14,0,0,0
1,0.570793182,1,14,0,0,0
1,1.403614617,1,14,1,0,0
1,1.03769608,1,14,1,0,0
1,0.748884085,1,14,0,0,0
1,0.552319335,1,14,0,0,0
1,0.868125905,1,14,1,0,0
1,0.757523766,1,14,0,0,0
1,0.874895188,1,14,1,0,0
1,0.64615529,1,14,0,0,0
1,0.858316435,1,14,1,0,0
1,0.660176517,1,14,0,0,0
1,0.980436101,1,14,1,0,0
1,0.713346609,1,14,0,0,0
1,0.705700737,0,14,1,0,0
1,0.870751687,1,14,0,0,0
1,0.896003422,1,14,1,0,0
1,0.750053917,1,14,0,0,0
1,0.889020051,1,14,1,0,0
1,0.782180567,1,14,0,0,0
1,0.801175988,1,14,0,0,0
1,0.964223346,1,14,1,0,0
1,1.153298739,1,14,1,0,0
1,0.9853789,1,14,0,0,0
1,0.802793638,1,14,0,0,0
1,1.166381031,1,14,1,0,0
1,0.757564759,1,14,0,0,0
1,0.731113195,1,14,0,0,0
1,0.965963739,1,14,1,0,0
1,0.797432201,1,14,0,0,0
1,1.017006377,1,14,1,0,0
1,0.778570743,1,14,0,0,0
1,0.749455231,1,14,0,0,0
1,1.248630856,1,14,1,0,0
1,0.671652489,1,14,0,0,0
1,0.608974258,1,14,0,0,0
1,1.075249184,1,14,1,0,0
1,0.756117397,1,14,0,0,0
1,0.766729531,1,14,0,0,0
1,0.907778061,1,14,1,0,0
1,0.715625731,1,14,0,0,0
1,0.713268775,1,14,0,0,0
1,1.06965033,1,14,1,0,0
1,0.827227839,1,14,1,0,0
1,0.755565573,1,14,0,0,0
1,1.019898315,1,14,0,0,0
1,0.914523589,1,14,1,0,0
1,0.599487108,1,14,0,0,0
1,0.930318826,1,14,1,0,0
1,0.651247212,1,14,0,0,0
1,0.721549131,1,14,0,0,0
1,0.909367084,1,14,1,0,0
1,0.598152585,1,14,0,0,0
1,0.997874857,1,14,1,0,0
1,0.742734278,1,14,0,0,0
1,0.719808863,1,14,0,0,0
1,0.996176359,1,14,1,0,0
1,0.957254532,1,14,1,0,0
1,0.627386477,1,14,0,0,0
1,0.954701312,1,14,1,0,0
1,0.685085078,1,14,0,0,0
1,0.809331634,1,14,1,0,0
1,0.767703976,1,14,0,0,0
1,0.788082182,1,14,1,0,0
1,0.748758012,1,14,0,0,0
1,0.925004082,1,14,1,0,0
1,0.641057923,1,14,0,0,0
1,1.013424258,1,14,1,0,0
1,0.672928793,1,14,0,0,0
1,0.870960938,1,14,1,0,0
1,0.59965425,1,14,0,0,0
1,0.643476618,1,14,0,0,0
1,0.799841657,1,14,1,0,0
1,0.773389838,1,14,0,0,0
1,1.394052745,1,14,1,0,0
1,0.616110028,1,14,0,0,0
1,1.092224906,1,14,1,0,0
1,0.647808215,1,14,0,0,0
1,0.846405041,1,14,0,0,0
1,0.972892347,1,14,1,0,0
1,0.748582801,1,14,1,0,0
1,0.61430443,1,14,0,0,0
1,0.679821794,1,14,1,0,0
1,0.683893693,1,14,0,0,0
1,0.603771559,1,14,0,0,0
1,1.004755904,1,14,1,0,0
1,0.95291917,1,14,1,0,0
1,0.707266793,1,14,0,0,0
1,0.711048413,1,14,0,1,1
1,0.860118155,1,14,1,1,0
1,0.55043189,1,14,0,1,0
1,0.582672451,1,14,0,1,0
1,0.799004777,1,14,1,1,0
1,0.546348907,1,14,0,1,0
1,0.538136513,1,14,0,1,0
1,0.873701736,1,14,1,1,0
1,0.859840125,1,14,1,1,0
1,0.547112703,1,14,0,1,0
1,0.652052092,1,14,0,1,0
1,1.349309932,1,14,1,1,0
1,0.860924002,1,14,1,1,0
1,0.725443377,1,14,0,1,0
1,0.567124455,1,14,0,1,0
1,0.786108212,1,14,1,1,0
1,0.561666746,1,14,0,1,0
1,0.792905651,1,14,1,1,0
1,0.593082567,1,14,0,1,0
1,0.657278473,1,14,0,1,0
1,0.802946458,1,14,1,1,0
1,0.557277602,1,14,0,1,0
1,0.830036432,1,14,1,1,0
1,0.759215172,1,14,0,1,0
1,0.82614035,1,14,0,1,0
1,0.694917751,1,14,1,1,0
1,0.614887334,1,14,0,1,0
1,0.899231878,1,14,1,1,0
1,0.625938495,1,14,0,1,0
1,0.607697476,1,14,0,1,0
1,0.865796499,1,14,1,1,0
1,0.696298532,1,14,0,1,0
1,0.745249418,1,14,1,1,0
1,0.901172923,1,14,1,1,0
1,0.548335507,1,14,0,1,0
1,0.816971236,1,14,1,1,0
1,0.600856892,1,14,0,1,0
1,0.777054659,1,14,1,1,0
1,0.768459291,1,14,0,1,0
1,0.603315279,1,14,0,1,0
1,0.814724557,1,14,1,1,0
1,0.696634051,1,14,0,1,0
1,0.565439202,1,14,0,1,0
1,0.743113511,1,14,1,1,0
1,0.80293569,1,14,1,1,0
1,0.611208607,1,14,0,1,0
1,0.781930854,1,14,1,1,0
1,0.741149019,1,14,1,1,0
1,0.627950846,1,14,0,1,0
1,0.857594319,1,14,1,1,0
1,0.648410536,1,14,0,1,0
1,0.76438368,1,14,1,1,0
1,0.696080529,1,14,0,1,0
1,0.81556918,1,14,1,1,0
1,0.610617645,1,14,0,1,0
1,0.72239746,1,14,1,1,0
1,0.773380372,1,14,1,1,0
1,0.575718364,1,14,0,1,0
1,0.680920224,1,14,1,1,0
1,0.947814436,1,14,1,1,0
1,0.537334061,1,14,0,1,0
1,0.678390143,1,14,1,1,0
1,0.64597982,1,14,1,1,0
1,0.55092419,1,14,0,1,0
1,0.711309735,1,14,1,1,0
1,0.671056626,1,14,1,1,0
1,0.629289328,1,14,0,1,0
1,0.699795459,1,14,1,1,0
1,0.73170838,1,14,1,1,0
1,0.714629078,1,14,0,1,0
1,1.04180066,0,14,1,1,0
1,1.255249307,1,14,0,1,0
1,0.945321711,1,14,1,1,0
1,0.97249208,1,14,0,1,0
1,0.694789523,1,14,0,1,0
1,0.959208321,1,14,1,1,0
1,0.828788006,1,14,0,1,0
1,0.660044101,1,14,0,1,0
1,0.787090481,1,14,1,1,0
1,1.096555895,1,14,1,1,0
1,1.037218912,1,14,0,1,0
1,0.974213542,1,14,0,1,0
1,0.891680508,1,14,1,1,0
1,0.706739037,1,14,0,1,0
1,0.661052515,1,14,0,1,0
1,0.992842136,1,14,1,1,0
1,0.67811958,1,14,0,1,0
1,0.760776477,1,14,1,1,0
1,0.632924903,1,14,0,1,0
1,0.733043919,1,14,1,1,0
1,0.670830767,1,14,0,1,0
1,0.73234579,1,14,1,1,0
1,0.718643656,1,14,0,1,0
1,0.773201388,1,14,0,1,0
1,1.007885629,1,14,1,1,0
1,0.755208867,1,14,0,1,0
1,0.79338523,1,14,1,1,0
1,0.760017987,1,14,1,1,0
1,0.580137777,1,14,0,1,0
1,0.822612788,1,14,1,1,0
1,0.566833119,1,14,0,1,0
1,0.861968885,1,14,1,1,0
1,0.626545511,1,14,0,1,0
1,0.725195865,1,14,1,1,0
1,0.728666055,1,14,1,1,0
1,0.692567368,1,14,0,1,0
1,0.588532557,1,14,0,1,0
1,0.76426865,1,14,1,1,0
1,0.636573175,1,14,0,1,0
1,0.723635552,1,14,1,1,0
1,0.555740904,1,14,0,1,0
1,0.625917936,1,14,0,1,0
1,0.799088567,1,14,1,1,0
1,0.564677188,1,14,0,1,0
1,0.584084487,1,14,0,1,0
1,0.743417853,1,14,1,1,0
1,0.661204598,1,14,0,1,0
1,0.727798567,1,14,1,1,0
1,0.616976381,1,14,0,1,0
1,1.113943569,1,14,1,1,0
1,0.499108681,1,14,0,1,0
1,0.928022416,1,14,1,1,0
1,0.590609078,1,14,0,1,0
1,0.938842497,1,14,1,1,0
1,0.908561501,1,14,1,1,0
1,0.622177551,1,14,0,1,0
1,0.708525833,1,14,1,1,0
1,1.121620422,1,14,1,1,0
1,0.91132973,1,14,0,1,0
1,0.778570456,1,14,1,1,0
1,0.77376299,1,14,0,1,0
1,0.716006544,1,14,1,1,0
1,0.60135979,1,14,1,1,0
1,0.558782116,1,14,0,1,0
1,0.72720354,1,14,1,1,0
1,0.579683799,1,14,0,1,0
1,0.852190525,1,14,1,1,0
1,0.77329638,1,14,1,1,0
1,0.534104849,1,14,0,1,0
1,1.011125621,1,14,1,1,0
1,0.61652986,1,14,1,1,0
1,0.625066615,1,14,0,1,0
1,0.865150633,1,14,1,1,0
