trialNum,blockNum,rt,response,subj_idx,conflict,ics,starting_trial
1,1,1.6862,1,P1,0,0,1
3,1,1.2309,1,P1,1,0,0
4,1,1.3633,1,P1,0,0,0
5,1,1.236,1,P1,1,0,0
7,1,1.6918,1,P1,0,0,0
8,1,1.2559,1,P1,1,0,0
9,1,1.0219,1,P1,1,0,0
10,1,1.0008,1,P1,1,0,0
11,1,1.1798,1,P1,0,0,0
12,1,1.082,1,P1,0,0,0
13,1,1.0241,1,P1,0,0,0
14,1,1.2174,1,P1,1,0,0
15,1,1.1964,1,P1,1,0,0
16,1,0.74997,1,P1,0,0,0
17,1,1.0934,1,P1,1,0,0
18,1,1.0889,1,P1,1,0,0
19,1,0.8869,1,P1,0,0,0
20,1,0.93639,1,P1,0,0,0
21,1,1.0983,1,P1,1,0,0
22,1,1.1803,1,P1,1,0,0
23,1,0.96193,1,P1,0,0,0
24,1,1.4701,1,P1,1,0,0
25,1,1.673,1,P1,1,0,0
26,1,0.94175,1,P1,0,0,0
27,1,1.0133,1,P1,0,0,0
28,1,0.87416,1,P1,0,0,0
29,1,1.1826,1,P1,1,0,0
30,1,1.2163,1,P1,1,0,0
31,1,0.99872,1,P1,0,0,0
32,1,1.0889,1,P1,1,0,0
33,1,0.85441,1,P1,0,0,0
34,1,1.6831,1,P1,1,0,0
35,1,1.1845,1,P1,0,0,0
36,1,0.6854,1,P1,0,0,0
37,1,1.337,1,P1,1,0,0
38,1,1.5263,1,P1,1,0,0
39,1,1.297,1,P1,0,0,0
40,1,0.83946,1,P1,0,0,0
41,1,0.96479,1,P1,0,0,0
42,1,1.3811,1,P1,1,0,0
43,1,1.6434,1,P1,1,0,0
44,1,1.4939,1,P1,1,0,0
45,1,0.92375,1,P1,0,0,0
46,1,1.1661,1,P1,0,0,0
47,1,1.7313,1,P1,1,0,0
48,1,1.1241,1,P1,1,0,0
49,1,0.91097,1,P1,0,0,0
50,1,0.87337,1,P1,0,0,0
51,1,1.6938,1,P1,0,0,0
52,1,1.6514,1,P1,1,0,0
53,1,0.8529,1,P1,0,0,0
54,1,0.7322,1,P1,0,0,0
55,1,0.86185,1,P1,0,0,0
56,1,1.369,1,P1,1,0,0
57,1,1.21,1,P1,1,0,0
58,1,0.863,1,P1,0,0,0
59,1,1.4714,1,P1,1,0,0
60,1,0.98158,1,P1,0,0,0
61,1,0.95965,1,P1,0,0,0
62,1,0.7057,1,P1,0,0,0
63,1,1.0496,1,P1,1,0,0
64,1,1.5256,1,P1,1,0,0
66,2,0.98032,1,P1,0,0,1
67,2,0.93222,1,P1,0,0,0
68,2,1.3718,1,P1,1,0,0
69,2,0.90465,1,P1,1,0,0
70,2,0.78971,1,P1,0,0,0
71,2,0.92571,1,P1,1,0,0
72,2,0.93244,1,P1,0,0,0
73,2,0.86042,1,P1,0,0,0
74,2,0.84953,1,P1,0,0,0
75,2,1.433,1,P1,1,0,0
76,2,1.517,1,P1,1,0,0
77,2,1.3911,1,P1,1,0,0
78,2,0.74143,1,P1,0,0,0
79,2,0.79223,1,P1,0,0,0
80,2,1.3492,1,P1,1,0,0
81,2,1.0408,1,P1,1,0,0
82,2,1.0124,1,P1,1,0,0
83,2,0.77898,1,P1,0,0,0
84,2,1.5712,1,P1,1,0,0
86,2,1.2187,1,P1,1,0,0
87,2,0.79095,1,P1,0,0,0
89,2,0.90831,1,P1,1,0,0
90,2,1.1971,1,P1,1,0,0
91,2,0.7989,1,P1,0,0,0
92,2,0.67061,1,P1,0,0,0
93,2,0.82018,1,P1,0,0,0
94,2,1.3714,1,P1,1,0,0
95,2,1.4999,1,P1,1,0,0
96,2,1.3767,1,P1,1,0,0
97,2,0.80414,1,P1,0,0,0
98,2,0.73018,1,P1,0,0,0
99,2,0.85866,1,P1,0,0,0
100,2,1.1997,1,P1,1,0,0
101,2,1.1199,1,P1,1,0,0
102,2,1.1249,1,P1,1,0,0
103,2,0.79955,1,P1,0,0,0
104,2,1.1733,1,P1,1,0,0
105,2,0.81375,1,P1,0,0,0
106,2,0.82515,1,P1,0,0,0
107,2,0.86117,1,P1,0,0,0
108,2,1.2112,1,P1,1,0,0
109,2,0.94249,1,P1,0,0,0
110,2,1.2847,1,P1,1,0,0
111,2,1.0415,1,P1,1,0,0
112,2,1.4045,1,P1,1,0,0
113,2,0.73249,1,P1,0,0,0
114,2,0.64183,1,P1,0,0,0
115,2,0.61741,1,P1,0,0,0
116,2,1.2197,1,P1,1,0,0
117,2,0.85374,1,P1,0,0,0
118,2,0.75513,1,P1,0,0,0
119,2,1.2266,1,P1,1,0,0
120,2,1.1951,1,P1,1,0,0
121,2,0.7642,1,P1,0,0,0
123,2,0.62922,1,P1,0,0,0
124,2,0.65825,1,P1,0,0,0
125,2,1.3203,1,P1,1,0,0
126,2,0.83452,1,P1,0,0,0
127,2,0.72505,1,P1,0,0,0
128,2,1.6184,1,P1,1,0,0
129,3,1.1606,1,P1,0,0,1
130,3,0.98443,1,P1,1,0,0
131,3,0.6065,1,P1,0,0,0
132,3,0.66008,1,P1,0,0,0
133,3,0.93813,1,P1,1,0,0
134,3,0.70854,1,P1,1,0,0
135,3,0.93054,1,P1,0,0,0
136,3,0.72746,1,P1,0,0,0
137,3,0.686,1,P1,0,0,0
138,3,1.3637,1,P1,1,0,0
139,3,0.60357,1,P1,0,0,0
140,3,1.0086,1,P1,1,0,0
141,3,1.06,1,P1,1,0,0
142,3,0.66336,1,P1,0,0,0
143,3,0.94653,1,P1,1,0,0
144,3,0.74892,1,P1,0,0,0
145,3,0.90685,1,P1,1,0,0
146,3,1.0558,1,P1,1,0,0
147,3,0.70116,1,P1,0,0,0
148,3,1.39,1,P1,1,0,0
149,3,0.87011,1,P1,1,0,0
150,3,0.72579,1,P1,0,0,0
151,3,1.4581,1,P1,1,0,0
152,3,1.1573,1,P1,1,0,0
153,3,1.0674,1,P1,1,0,0
154,3,1.1981,1,P1,0,0,0
155,3,0.93105,1,P1,1,0,0
156,3,1.2432,1,P1,1,0,0
157,3,0.61076,1,P1,0,0,0
158,3,0.54884,1,P1,0,0,0
159,3,0.7585,1,P1,0,0,0
160,3,0.93816,1,P1,1,0,0
162,3,1.2913,1,P1,1,0,0
163,3,1.0193,1,P1,0,0,0
164,3,0.77666,1,P1,0,0,0
165,3,1.2247,1,P1,1,0,0
166,3,0.89447,1,P1,1,0,0
167,3,0.68812,1,P1,0,0,0
168,3,0.72049,1,P1,0,0,0
169,3,1.0385,1,P1,1,0,0
170,3,1.0045,1,P1,1,0,0
171,3,0.67351,1,P1,0,0,0
172,3,0.7501,1,P1,0,0,0
173,3,0.66445,1,P1,0,0,0
175,3,1.3774,1,P1,1,0,0
176,3,0.89795,1,P1,1,0,0
177,3,0.62654,1,P1,0,0,0
178,3,0.87383,1,P1,0,0,0
179,3,1.1143,1,P1,0,0,0
181,3,0.70804,1,P1,0,0,0
182,3,0.73707,1,P1,0,0,0
183,3,0.59518,1,P1,0,0,0
184,3,0.88656,1,P1,1,0,0
185,3,0.67876,1,P1,0,0,0
186,3,0.64139,1,P1,0,0,0
187,3,1.2763,1,P1,1,0,0
188,3,0.7754,1,P1,1,0,0
189,3,0.94238,1,P1,1,0,0
190,3,1.2215,1,P1,0,0,0
191,3,0.66926,1,P1,0,0,0
192,3,1.3098,1,P1,1,0,0
2,1,0.94011,0,P1,1,0,1
3,1,0.7223,1,P1,0,0,0
4,1,0.67901,1,P1,0,0,0
5,1,0.82917,0,P1,1,0,0
6,1,0.60007,0,P1,1,0,0
7,1,0.64511,1,P1,0,0,0
8,1,0.65,1,P1,0,0,0
9,1,0.64163,1,P1,0,0,0
10,1,0.72713,0,P1,1,0,0
11,1,0.60715,1,P1,0,0,0
12,1,0.73946,0,P1,1,0,0
13,1,0.71149,0,P1,1,0,0
14,1,0.65102,1,P1,0,0,0
15,1,0.6457,0,P1,1,0,0
16,1,0.52801,1,P1,0,0,0
17,1,0.65354,0,P1,1,0,0
18,1,0.65909,0,P1,1,0,0
19,1,0.54423,1,P1,0,0,0
20,1,0.59233,0,P1,1,0,0
21,1,0.61624,0,P1,1,0,0
22,1,0.68108,1,P1,0,0,0
23,1,0.64549,0,P1,1,0,0
24,1,0.66509,0,P1,1,0,0
25,1,0.60732,0,P1,1,0,0
26,1,0.5934,1,P1,0,0,0
27,1,0.69378,0,P1,1,0,0
28,1,0.67047,0,P1,1,0,0
29,1,0.61336,1,P1,0,0,0
30,1,0.55136,1,P1,0,0,0
31,1,0.52129,1,P1,0,0,0
32,1,0.79679,0,P1,1,0,0
33,1,0.85858,0,P1,1,0,0
34,1,0.68557,0,P1,1,0,0
35,1,0.60614,1,P1,0,0,0
36,1,0.72981,1,P1,0,0,0
37,1,0.7306,0,P1,1,0,0
38,1,0.62475,0,P1,1,0,0
39,1,0.67452,1,P1,0,0,0
40,1,0.57897,1,P1,0,0,0
41,1,0.64021,0,P1,1,0,0
42,1,0.82992,0,P1,1,0,0
43,1,0.62674,1,P1,0,0,0
44,1,0.51005,1,P1,0,0,0
45,1,0.55331,1,P1,0,0,0
46,1,0.60822,0,P1,1,0,0
47,1,0.6103,0,P1,1,0,0
48,1,0.6903,0,P1,1,0,0
49,1,0.65904,1,P1,0,0,0
50,1,0.63534,1,P1,0,0,0
51,1,0.60306,1,P1,0,0,0
52,1,0.63707,0,P1,1,0,0
53,1,0.50069,1,P1,0,0,0
54,1,0.57845,1,P1,0,0,0
55,1,0.53268,1,P1,0,0,0
56,1,0.72801,0,P1,1,0,0
57,1,0.64861,1,P1,0,0,0
58,1,0.62722,1,P1,0,0,0
59,1,0.63778,0,P1,1,0,0
60,1,0.79227,0,P1,1,0,0
61,1,0.75168,0,P1,1,0,0
62,1,0.58327,1,P1,0,0,0
63,1,0.59076,1,P1,0,0,0
64,1,0.63894,0,P1,1,0,0
65,2,1.4886,1,P1,0,0,1
66,2,1.4,0,P1,1,0,0
67,2,1.7378,1,P1,1,0,0
68,2,1.3906,1,P1,0,0,0
69,2,1.3104,1,P1,1,0,0
70,2,1.3857,1,P1,1,0,0
71,2,0.90345,1,P1,0,0,0
72,2,1.3789,1,P1,1,0,0
73,2,1.1614,1,P1,1,0,0
74,2,1.1397,1,P1,1,0,0
75,2,0.75916,1,P1,0,0,0
76,2,1.0135,1,P1,0,0,0
77,2,0.8596,1,P1,0,0,0
78,2,1.1332,1,P1,1,0,0
79,2,1.3039,1,P1,1,0,0
80,2,0.68228,1,P1,0,0,0
81,2,1.6341,1,P1,1,0,0
82,2,1.1501,1,P1,1,0,0
83,2,0.77325,1,P1,0,0,0
84,2,0.8064,1,P1,0,0,0
85,2,1.2092,1,P1,1,0,0
86,2,1.2587,1,P1,1,0,0
87,2,0.73616,1,P1,0,0,0
88,2,1.0361,1,P1,1,0,0
89,2,1.4473,1,P1,1,0,0
90,2,0.84412,1,P1,0,0,0
91,2,0.80312,1,P1,0,0,0
92,2,0.96783,1,P1,0,0,0
93,2,1.4532,1,P1,1,0,0
94,2,0.99152,1,P1,1,0,0
95,2,0.72513,1,P1,0,0,0
96,2,0.87962,1,P1,1,0,0
97,2,0.74109,1,P1,0,0,0
98,2,1.2511,1,P1,1,0,0
99,2,1.0082,1,P1,0,0,0
100,2,0.60539,1,P1,0,0,0
101,2,1.3214,1,P1,1,0,0
102,2,0.90309,1,P1,1,0,0
103,2,0.62586,1,P1,0,0,0
104,2,0.71126,1,P1,0,0,0
105,2,0.66121,1,P1,0,0,0
107,2,1.2123,1,P1,1,0,0
108,2,1.3664,1,P1,1,0,0
109,2,1.2445,1,P1,0,0,0
110,2,1.4887,1,P1,0,0,0
112,2,0.9493,1,P1,1,0,0
113,2,0.80054,1,P1,0,0,0
114,2,0.87486,1,P1,0,0,0
115,2,0.76803,1,P1,0,0,0
116,2,1.0289,1,P1,1,0,0
117,2,0.82235,1,P1,0,0,0
118,2,0.87863,1,P1,0,0,0
119,2,0.75206,1,P1,0,0,0
120,2,1.164,1,P1,1,0,0
121,2,1.0524,1,P1,1,0,0
122,2,0.68884,1,P1,0,0,0
123,2,0.89746,1,P1,1,0,0
124,2,0.64803,1,P1,0,0,0
125,2,0.8185,1,P1,0,0,0
126,2,1.1402,1,P1,0,0,0
127,2,1.1321,1,P1,1,0,0
128,2,1.2879,1,P1,1,0,0
129,3,1.1631,1,P1,0,0,1
130,3,0.62746,1,P1,0,0,0
131,3,0.62758,1,P1,0,0,0
132,3,0.84362,1,P1,1,0,0
133,3,0.91957,1,P1,1,0,0
134,3,0.7086,1,P1,0,0,0
135,3,0.82859,1,P1,1,0,0
136,3,0.61031,1,P1,0,0,0
137,3,1.0016,1,P1,0,0,0
138,3,0.71888,1,P1,0,0,0
139,3,1.1106,1,P1,1,0,0
140,3,0.92205,1,P1,1,0,0
142,3,0.59437,1,P1,0,0,0
143,3,0.74097,1,P1,0,0,0
144,3,1.3627,1,P1,1,0,0
145,3,0.9272,1,P1,1,0,0
146,3,0.77063,1,P1,1,0,0
147,3,0.68072,1,P1,0,0,0
149,3,1.5026,1,P1,1,0,0
150,3,1.5038,1,P1,1,0,0
151,3,0.82075,1,P1,0,0,0
152,3,1.045,1,P1,1,0,0
153,3,0.93791,1,P1,1,0,0
154,3,1.3069,1,P1,1,0,0
155,3,1.021,1,P1,0,0,0
156,3,0.98957,1,P1,0,0,0
157,3,1.6978,1,P1,0,0,0
159,3,0.90583,1,P1,1,0,0
160,3,0.8791,1,P1,1,0,0
161,3,0.93058,1,P1,0,0,0
162,3,0.68083,1,P1,0,0,0
163,3,0.77724,1,P1,0,0,0
164,3,1.038,1,P1,1,0,0
165,3,1.2305,1,P1,1,0,0
166,3,1.1869,1,P1,1,0,0
167,3,0.83012,1,P1,0,0,0
168,3,0.77208,1,P1,1,0,0
169,3,0.68413,1,P1,0,0,0
170,3,0.74364,1,P1,0,0,0
171,3,0.58742,1,P1,0,0,0
172,3,0.93723,1,P1,1,0,0
173,3,0.6209,1,P1,0,0,0
174,3,0.89882,1,P1,1,0,0
175,3,1.0076,0,P1,1,0,0
177,3,1.0674,1,P1,0,0,0
178,3,0.75229,1,P1,0,0,0
179,3,0.76023,1,P1,0,0,0
180,3,0.89896,1,P1,1,0,0
181,3,0.9486,1,P1,0,0,0
182,3,0.85023,1,P1,0,0,0
183,3,1.2582,1,P1,1,0,0
184,3,1.0189,1,P1,1,0,0
185,3,0.62001,1,P1,0,0,0
186,3,1.5931,1,P1,1,0,0
187,3,0.54877,1,P1,0,0,0
188,3,0.89821,1,P1,0,0,0
189,3,1.2087,1,P1,1,0,0
190,3,0.6429,1,P1,0,0,0
191,3,0.56499,1,P1,0,0,0
192,3,1.1068,1,P1,1,0,0
1,1,1.2739,1,P1,0,0,1
2,1,0.99313,1,P1,1,0,0
3,1,0.86693,1,P1,1,0,0
4,1,0.83907,1,P1,0,0,0
5,1,0.87186,1,P1,1,0,0
6,1,0.85021,1,P1,1,0,0
7,1,0.81535,1,P1,0,0,0
8,1,0.71577,1,P1,1,0,0
9,1,1.218,1,P1,1,0,0
10,1,0.74839,1,P1,1,0,0
11,1,0.78367,1,P1,0,0,0
12,1,0.71746,1,P1,0,0,0
13,1,0.69203,1,P1,0,0,0
14,1,0.74162,1,P1,1,0,0
15,1,0.95978,1,P1,1,0,0
16,1,0.64271,1,P1,0,0,0
17,1,1.1458,1,P1,1,0,0
18,1,0.75754,1,P1,1,0,0
19,1,0.7315,1,P1,0,0,0
20,1,0.68548,1,P1,0,0,0
21,1,0.84727,1,P1,1,0,0
22,1,0.91284,1,P1,1,0,0
23,1,0.67916,1,P1,0,0,0
24,1,0.70689,1,P1,1,0,0
25,1,1.6136,1,P1,1,0,0
26,1,1.2182,1,P1,0,0,0
27,1,0.6503,1,P1,0,0,0
28,1,0.54343,1,P1,0,0,0
29,1,0.75641,1,P1,1,0,0
30,1,0.90223,1,P1,1,0,0
31,1,0.70077,1,P1,0,0,0
32,1,0.69538,1,P1,1,0,0
33,1,0.60422,1,P1,0,0,0
34,1,0.98588,1,P1,1,0,0
35,1,0.64755,1,P1,0,0,0
36,1,0.51554,1,P1,0,0,0
37,1,1.0236,1,P1,1,0,0
38,1,0.66887,1,P1,1,0,0
39,1,0.63133,1,P1,0,0,0
40,1,0.65331,1,P1,0,0,0
41,1,0.57054,1,P1,0,0,0
42,1,1.1144,1,P1,1,0,0
43,1,1.2327,1,P1,1,0,0
44,1,0.97187,1,P1,1,0,0
45,1,0.68994,1,P1,0,0,0
46,1,1.1094,1,P1,0,0,0
47,1,1.3864,1,P1,1,0,0
48,1,0.98673,1,P1,1,0,0
49,1,0.75732,1,P1,0,0,0
50,1,0.76803,1,P1,0,0,0
51,1,0.6451,1,P1,0,0,0
52,1,0.68174,1,P1,1,0,0
53,1,0.69951,1,P1,0,0,0
54,1,0.59494,1,P1,0,0,0
55,1,0.61199,1,P1,0,0,0
56,1,1.2478,1,P1,1,0,0
57,1,1.1368,1,P1,1,0,0
58,1,0.88574,1,P1,0,0,0
59,1,0.77337,1,P1,1,0,0
60,1,0.57157,1,P1,0,0,0
61,1,0.74257,1,P1,0,0,0
62,1,0.55178,1,P1,0,0,0
63,1,1.0238,1,P1,1,0,0
64,1,0.77965,1,P1,1,0,0
65,2,1.0225,1,P1,0,0,1
66,2,0.67782,1,P1,0,0,0
67,2,0.74219,1,P1,0,0,0
68,2,0.82944,1,P1,1,0,0
69,2,0.79412,1,P1,1,0,0
70,2,0.56785,1,P1,0,0,0
71,2,1.0555,1,P1,1,0,0
72,2,0.80565,1,P1,0,0,0
73,2,0.57282,1,P1,0,0,0
74,2,0.6418,1,P1,0,0,0
75,2,0.98591,1,P1,1,0,0
76,2,1.0848,1,P1,1,0,0
77,2,1.343,1,P1,1,0,0
78,2,0.72499,1,P1,0,0,0
79,2,0.71268,1,P1,0,0,0
80,2,1.014,1,P1,1,0,0
81,2,0.94601,1,P1,1,0,0
82,2,1.1252,1,P1,1,0,0
83,2,0.69912,1,P1,0,0,0
84,2,0.995,1,P1,1,0,0
85,2,1.4088,1,P1,1,0,0
86,2,0.91495,1,P1,1,0,0
87,2,0.72747,1,P1,0,0,0
88,2,1.1122,1,P1,1,0,0
89,2,0.90915,1,P1,1,0,0
90,2,0.97368,1,P1,1,0,0
91,2,0.71866,1,P1,0,0,0
92,2,0.78368,1,P1,0,0,0
94,2,1.0362,1,P1,1,0,0
95,2,1.0523,1,P1,1,0,0
96,2,1.1858,1,P1,1,0,0
97,2,0.78865,1,P1,0,0,0
98,2,0.79475,1,P1,0,0,0
99,2,0.7311,1,P1,0,0,0
100,2,0.94361,1,P1,1,0,0
101,2,0.92768,1,P1,1,0,0
102,2,1.0771,1,P1,1,0,0
103,2,0.7678,1,P1,0,0,0
104,2,0.93356,1,P1,1,0,0
105,2,0.78137,1,P1,0,0,0
106,2,1.3057,1,P1,0,0,0
107,2,1.2291,1,P1,0,0,0
108,2,1.0191,1,P1,1,0,0
109,2,0.76634,1,P1,0,0,0
110,2,0.91669,1,P1,1,0,0
111,2,0.97826,1,P1,1,0,0
112,2,1.1484,1,P1,1,0,0
113,2,1.0852,1,P1,0,0,0
114,2,1.0419,1,P1,0,0,0
115,2,0.77758,1,P1,0,0,0
116,2,0.9323,1,P1,1,0,0
117,2,0.87087,1,P1,0,0,0
118,2,1.5566,1,P1,0,0,0
119,2,0.71634,1,P1,1,0,0
120,2,0.9727,1,P1,1,0,0
121,2,0.60652,1,P1,0,0,0
122,2,1.034,1,P1,1,0,0
123,2,0.64603,1,P1,0,0,0
124,2,0.64358,1,P1,0,0,0
125,2,1.0969,1,P1,1,0,0
126,2,0.90006,1,P1,0,0,0
127,2,0.56512,1,P1,0,0,0
128,2,0.80317,1,P1,1,0,0
129,3,0.95237,1,P1,0,0,1
130,3,0.72937,1,P1,1,0,0
131,3,0.71942,1,P1,0,0,0
132,3,0.77217,1,P1,0,0,0
133,3,1.2104,1,P1,1,0,0
134,3,0.78856,1,P1,1,0,0
135,3,1.0422,1,P1,0,0,0
136,3,0.91858,1,P1,0,0,0
137,3,0.76644,1,P1,0,0,0
138,3,1.139,1,P1,1,0,0
139,3,0.71547,1,P1,0,0,0
140,3,0.99239,1,P1,1,0,0
141,3,1.1229,1,P1,1,0,0
142,3,1.1104,1,P1,0,0,0
143,3,0.84935,1,P1,1,0,0
144,3,0.76387,1,P1,0,0,0
145,3,1.4487,1,P1,1,0,0
147,3,0.7638,1,P1,0,0,0
148,3,1.6443,1,P1,1,0,0
149,3,1.3635,1,P1,1,0,0
150,3,0.86791,1,P1,0,0,0
151,3,1.0396,1,P1,1,0,0
152,3,1.0432,1,P1,1,0,0
153,3,0.85756,1,P1,1,0,0
154,3,1.3393,1,P1,0,0,0
156,3,1.2083,1,P1,1,0,0
157,3,0.62415,1,P1,0,0,0
158,3,1.0904,1,P1,0,0,0
159,3,0.77276,1,P1,0,0,0
160,3,1.2076,1,P1,1,0,0
161,3,1.3817,1,P1,1,0,0
162,3,1.2085,1,P1,1,0,0
163,3,1.3537,1,P1,0,0,0
164,3,1.5584,1,P1,0,0,0
165,3,1.2385,1,P1,1,0,0
166,3,1.1803,1,P1,1,0,0
167,3,0.71825,1,P1,0,0,0
168,3,0.7661,1,P1,0,0,0
169,3,0.78046,1,P1,1,0,0
170,3,0.98565,1,P1,1,0,0
171,3,1.0866,1,P1,0,0,0
172,3,1.4358,1,P1,0,0,0
173,3,0.99817,1,P1,0,0,0
174,3,1.0385,1,P1,1,0,0
175,3,1.1841,1,P1,1,0,0
176,3,0.6726,1,P1,1,0,0
177,3,0.59325,1,P1,0,0,0
178,3,0.60079,1,P1,0,0,0
179,3,0.98511,1,P1,0,0,0
180,3,0.87548,1,P1,1,0,0
181,3,0.67441,1,P1,0,0,0
183,3,1.0271,1,P1,0,0,0
184,3,1.0299,1,P1,1,0,0
185,3,0.87053,1,P1,0,0,0
186,3,0.88107,1,P1,0,0,0
188,3,1.2222,1,P1,1,0,0
189,3,1.2784,1,P1,1,0,0
191,3,0.89436,1,P1,0,0,0
192,3,1.1665,1,P1,1,0,0
8,1,0.94645,1,P2,1,0,1
9,1,1.0487,1,P2,1,0,0
10,1,0.96315,1,P2,1,0,0
11,1,0.79006,1,P2,0,0,0
12,1,0.96321,1,P2,0,0,0
15,1,1.2535,1,P2,1,0,0
16,1,1.0952,1,P2,0,0,0
17,1,0.97469,1,P2,1,0,0
18,1,1.3705,1,P2,1,0,0
19,1,1.1367,1,P2,0,0,0
20,1,1.6184,1,P2,0,0,0
21,1,1.268,1,P2,1,0,0
22,1,1.3016,1,P2,1,0,0
23,1,0.92371,1,P2,0,0,0
24,1,0.99952,1,P2,1,0,0
25,1,1.6339,1,P2,1,0,0
26,1,1.3351,1,P2,0,0,0
27,1,1.1985,1,P2,0,0,0
28,1,1.1713,1,P2,0,0,0
29,1,1.4961,1,P2,1,0,0
30,1,1.242,1,P2,1,0,0
31,1,1.12,1,P2,0,0,0
32,1,1.2907,1,P2,1,0,0
33,1,0.83156,1,P2,0,0,0
34,1,0.86088,0,P2,1,0,0
35,1,1.0818,1,P2,0,0,0
36,1,1.0137,1,P2,0,0,0
37,1,1.4576,1,P2,1,0,0
38,1,1.3588,1,P2,1,0,0
39,1,1.1615,1,P2,0,0,0
40,1,1.0716,1,P2,0,0,0
41,1,0.94076,1,P2,0,0,0
42,1,1.0689,1,P2,1,0,0
43,1,1.395,1,P2,1,0,0
44,1,1.4857,1,P2,1,0,0
45,1,0.94812,1,P2,0,0,0
46,1,0.90285,1,P2,0,0,0
47,1,0.93969,1,P2,1,0,0
48,1,1.1321,1,P2,1,0,0
49,1,1.0148,1,P2,0,0,0
50,1,0.81732,1,P2,0,0,0
51,1,1.3182,1,P2,0,0,0
53,1,0.97277,1,P2,0,0,0
54,1,1.0121,1,P2,0,0,0
55,1,1.5417,1,P2,0,0,0
56,1,1.3296,1,P2,1,0,0
57,1,1.202,1,P2,1,0,0
58,1,0.95086,1,P2,0,0,0
60,1,1.3415,1,P2,0,0,0
61,1,1.4,1,P2,0,0,0
62,1,0.68178,1,P2,0,0,0
63,1,1.5531,1,P2,1,0,0
64,1,1.533,1,P2,1,0,0
65,2,1.2624,1,P2,0,0,1
66,2,1.301,1,P2,1,0,0
67,2,0.93495,1,P2,1,0,0
68,2,0.6359,1,P2,0,0,0
69,2,1.276,1,P2,1,0,0
70,2,0.91869,0,P2,1,0,0
71,2,0.99615,1,P2,0,0,0
73,2,1.142,0,P2,1,0,0
74,2,1.4406,0,P2,1,0,0
75,2,0.83549,1,P2,0,0,0
77,2,1.1909,1,P2,0,0,0
78,2,1.3522,1,P2,1,0,0
79,2,0.85112,0,P2,1,0,0
80,2,0.86879,1,P2,0,0,0
81,2,1.2602,0,P2,1,0,0
82,2,1.2239,1,P2,1,0,0
83,2,0.92606,1,P2,0,0,0
85,2,1.0094,0,P2,1,0,0
86,2,1.123,0,P2,1,0,0
87,2,0.93694,1,P2,0,0,0
88,2,1.413,1,P2,1,0,0
89,2,1.4556,0,P2,1,0,0
90,2,1.7324,1,P2,0,0,0
91,2,1.0039,1,P2,0,0,0
92,2,1.0728,1,P2,0,0,0
93,2,1.2217,1,P2,1,0,0
94,2,1.0632,1,P2,1,0,0
95,2,1.4375,1,P2,0,0,0
96,2,1.368,0,P2,1,0,0
97,2,1.3728,1,P2,0,0,0
98,2,1.0821,0,P2,1,0,0
99,2,1.0152,1,P2,0,0,0
100,2,1.059,1,P2,0,0,0
101,2,1.375,1,P2,1,0,0
102,2,1.0841,1,P2,1,0,0
103,2,1.3667,1,P2,0,0,0
104,2,0.84488,1,P2,0,0,0
105,2,0.79391,1,P2,0,0,0
106,2,1.1143,1,P2,1,0,0
107,2,0.92849,1,P2,1,0,0
108,2,1.1793,1,P2,1,0,0
109,2,1.4732,1,P2,0,0,0
110,2,1.188,1,P2,0,0,0
112,2,1.4174,1,P2,1,0,0
113,2,1.396,1,P2,0,0,0
114,2,0.92672,1,P2,0,0,0
115,2,0.89953,1,P2,0,0,0
116,2,0.90457,1,P2,1,0,0
117,2,0.71403,1,P2,0,0,0
118,2,0.92959,1,P2,0,0,0
119,2,0.80313,1,P2,0,0,0
120,2,1.5829,1,P2,1,0,0
121,2,0.95937,1,P2,1,0,0
122,2,0.85236,1,P2,0,0,0
123,2,1.5728,1,P2,1,0,0
124,2,1.0509,1,P2,0,0,0
125,2,0.72544,1,P2,0,0,0
126,2,0.61503,1,P2,0,0,0
127,2,1.0704,1,P2,1,0,0
128,2,1.2902,1,P2,1,0,0
129,3,1.1206,1,P2,0,0,1
130,3,0.83232,1,P2,1,0,0
131,3,0.71049,1,P2,0,0,0
132,3,0.58766,1,P2,0,0,0
133,3,1.0416,1,P2,1,0,0
134,3,0.84416,0,P2,1,0,0
135,3,0.88915,1,P2,0,0,0
136,3,0.62227,1,P2,0,0,0
137,3,0.78965,1,P2,0,0,0
138,3,1.0505,1,P2,1,0,0
139,3,0.75397,1,P2,0,0,0
140,3,0.88685,1,P2,1,0,0
141,3,1.3858,1,P2,1,0,0
142,3,0.81259,1,P2,0,0,0
143,3,1.6071,1,P2,1,0,0
144,3,1.362,0,P2,0,0,0
145,3,1.487,0,P2,1,0,0
147,3,1.2491,1,P2,0,0,0
148,3,1.1854,1,P2,1,0,0
150,3,1.1289,1,P2,0,0,0
151,3,1.061,1,P2,1,0,0
152,3,0.93605,1,P2,1,0,0
153,3,1.3421,1,P2,1,0,0
154,3,1.5677,1,P2,0,0,0
155,3,1.5885,1,P2,1,0,0
156,3,1.164,1,P2,1,0,0
157,3,1.2514,1,P2,0,0,0
158,3,0.94903,1,P2,0,0,0
159,3,0.72664,1,P2,0,0,0
160,3,1.1613,1,P2,1,0,0
161,3,1.2385,1,P2,1,0,0
162,3,1.3375,1,P2,1,0,0
163,3,0.92192,1,P2,0,0,0
164,3,0.77384,1,P2,0,0,0
165,3,1.59,1,P2,1,0,0
166,3,1.6444,1,P2,1,0,0
167,3,1.4379,1,P2,0,0,0
168,3,0.9103,1,P2,0,0,0
169,3,1.0034,1,P2,1,0,0
170,3,0.93659,1,P2,1,0,0
171,3,0.68544,1,P2,0,0,0
172,3,0.64929,1,P2,0,0,0
173,3,0.75595,1,P2,0,0,0
174,3,1.0673,1,P2,1,0,0
175,3,0.71699,0,P2,1,0,0
176,3,1.2134,1,P2,1,0,0
177,3,0.81393,1,P2,0,0,0
178,3,0.77306,1,P2,0,0,0
179,3,0.93354,1,P2,0,0,0
180,3,0.98308,1,P2,1,0,0
181,3,0.70256,1,P2,0,0,0
182,3,0.81164,1,P2,0,0,0
183,3,0.87737,1,P2,0,0,0
184,3,1.104,1,P2,1,0,0
185,3,0.8967,1,P2,0,0,0
186,3,0.77918,1,P2,0,0,0
187,3,1.11,1,P2,1,0,0
188,3,0.99252,1,P2,1,0,0
189,3,1,1,P2,1,0,0
190,3,0.7992,1,P2,0,0,0
191,3,0.71067,1,P2,0,0,0
192,3,0.79098,1,P2,1,0,0
1,1,1.5597,1,P2,0,0,1
2,1,0.96772,1,P2,0,0,0
3,1,0.93777,1,P2,0,0,0
4,1,0.87951,1,P2,0,0,0
6,1,1.7292,1,P2,1,0,0
7,1,1.0695,1,P2,1,0,0
8,1,1.1828,1,P2,0,0,0
9,1,0.97771,1,P2,0,0,0
10,1,0.82059,1,P2,0,0,0
11,1,0.66221,0,P2,1,0,0
13,1,1.0137,1,P2,0,0,0
14,1,1.2136,1,P2,0,0,0
15,1,1.1393,1,P2,1,0,0
16,1,1.2386,1,P2,1,0,0
17,1,1.2557,1,P2,0,0,0
18,1,1.0511,1,P2,1,0,0
19,1,0.80242,1,P2,0,0,0
20,1,1.6472,1,P2,0,0,0
21,1,0.69909,0,P2,1,0,0
22,1,1.0998,1,P2,1,0,0
24,1,1.6907,1,P2,0,0,0
25,1,1.558,1,P2,0,0,0
27,1,1.1466,1,P2,1,0,0
29,1,1.4417,1,P2,0,0,0
30,1,1.3348,1,P2,0,0,0
31,1,1.6175,1,P2,1,0,0
32,1,1.3503,1,P2,1,0,0
33,1,0.84598,1,P2,0,0,0
34,1,1.2622,1,P2,0,0,0
35,1,0.94503,1,P2,1,0,0
37,1,0.95845,1,P2,0,0,0
38,1,1.0419,1,P2,1,0,0
39,1,0.86291,1,P2,0,0,0
40,1,1.0547,1,P2,0,0,0
41,1,1.2065,1,P2,1,0,0
42,1,1.1061,1,P2,1,0,0
43,1,0.93644,1,P2,0,0,0
44,1,0.58152,1,P2,0,0,0
45,1,1.1444,1,P2,1,0,0
46,1,0.87513,1,P2,0,0,0
47,1,0.95681,1,P2,0,0,0
48,1,0.80165,1,P2,0,0,0
49,1,0.92565,1,P2,1,0,0
50,1,1.0292,1,P2,1,0,0
51,1,0.58407,1,P2,0,0,0
52,1,0.71685,1,P2,0,0,0
53,1,0.73323,1,P2,0,0,0
54,1,0.88807,1,P2,1,0,0
55,1,0.99146,1,P2,0,0,0
56,1,1.0248,1,P2,1,0,0
57,1,0.86188,1,P2,0,0,0
58,1,1.0656,1,P2,1,0,0
59,1,1.6477,1,P2,1,0,0
60,1,1.1868,1,P2,1,0,0
61,1,1.0769,1,P2,0,0,0
62,1,1.301,1,P2,1,0,0
63,1,1.1006,1,P2,1,0,0
64,1,0.92747,1,P2,1,0,0
67,2,0.6233,1,P2,0,0,1
68,2,0.83678,1,P2,0,0,0
69,2,1.2907,1,P2,1,0,0
70,2,1.3491,1,P2,1,0,0
71,2,0.72205,1,P2,0,0,0
72,2,0.66375,1,P2,0,0,0
73,2,1.0866,1,P2,0,0,0
74,2,0.89964,1,P2,1,0,0
75,2,0.79506,1,P2,0,0,0
76,2,1.4238,1,P2,1,0,0
77,2,1.1868,1,P2,1,0,0
78,2,0.82158,1,P2,0,0,0
79,2,1.2807,1,P2,1,0,0
80,2,0.63505,1,P2,0,0,0
81,2,0.87252,1,P2,1,0,0
82,2,1.0053,1,P2,1,0,0
83,2,0.66607,1,P2,0,0,0
84,2,1.4349,1,P2,1,0,0
85,2,1.6499,1,P2,1,0,0
86,2,0.81846,1,P2,0,0,0
87,2,1.1022,1,P2,1,0,0
88,2,0.88141,1,P2,1,0,0
89,2,1.2552,1,P2,1,0,0
90,2,0.87287,1,P2,0,0,0
91,2,1.2937,1,P2,1,0,0
92,2,1.5091,1,P2,1,0,0
93,2,0.90845,1,P2,0,0,0
94,2,0.68604,1,P2,0,0,0
95,2,0.6717,1,P2,0,0,0
96,2,0.85054,1,P2,1,0,0
97,2,1.0076,1,P2,1,0,0
98,2,0.91497,1,P2,1,0,0
99,2,0.94675,1,P2,0,0,0
100,2,0.97524,1,P2,0,0,0
101,2,1.1513,0,P2,1,0,0
102,2,1.7334,1,P2,1,0,0
103,2,1.0309,1,P2,0,0,0
104,2,0.93585,1,P2,0,0,0
105,2,1.1565,1,P2,1,0,0
106,2,1.2982,1,P2,1,0,0
107,2,0.9505,1,P2,0,0,0
108,2,0.97965,1,P2,0,0,0
109,2,0.84515,1,P2,0,0,0
110,2,1.7322,1,P2,1,0,0
111,2,1.2221,1,P2,1,0,0
112,2,1.7345,1,P2,1,0,0
113,2,0.87095,1,P2,0,0,0
114,2,0.68619,1,P2,0,0,0
115,2,0.81463,1,P2,0,0,0
116,2,1.2323,1,P2,1,0,0
117,2,0.80754,1,P2,0,0,0
118,2,0.77281,1,P2,0,0,0
119,2,0.7427,1,P2,0,0,0
120,2,1.225,1,P2,1,0,0
121,2,0.71401,1,P2,0,0,0
122,2,0.75632,1,P2,0,0,0
123,2,1.1992,1,P2,1,0,0
124,2,1.3055,0,P2,1,0,0
125,2,1.0094,1,P2,1,0,0
126,2,0.90448,1,P2,0,0,0
127,2,0.95947,1,P2,0,0,0
128,2,1.0881,1,P2,1,0,0
2,1,1.311,1,P3,0,0,1
3,1,1.5956,1,P3,1,0,0
4,1,1.1288,1,P3,0,0,0
5,1,1.0853,1,P3,0,0,0
7,1,0.7537,1,P3,0,0,0
8,1,1.0783,1,P3,1,0,0
9,1,1.0589,1,P3,1,0,0
10,1,1.2155,1,P3,0,0,0
11,1,1.2041,1,P3,0,0,0
12,1,1.1126,1,P3,1,0,0
13,1,0.8532,1,P3,0,0,0
14,1,1.0897,1,P3,1,0,0
16,1,0.9228,1,P3,0,0,0
17,1,1.1594,1,P3,1,0,0
18,1,1.4919,1,P3,1,0,0
19,1,1.2725,1,P3,0,0,0
20,1,1.6771,1,P3,0,0,0
21,1,0.8977,1,P3,0,0,0
22,1,1.1983,1,P3,1,0,0
23,1,1.3708,1,P3,1,0,0
25,1,0.676,1,P3,0,0,0
26,1,1.3926,1,P3,0,0,0
27,1,1.3811,1,P3,1,0,0
29,1,1.6862,1,P3,0,0,0
30,1,1.2188,1,P3,1,0,0
31,1,1.0313,1,P3,1,0,0
32,1,1.3479,1,P3,1,0,0
33,1,1.1205,1,P3,0,0,0
34,1,1.349,1,P3,0,0,0
35,1,0.6017,1,P3,0,0,0
36,1,0.6702,1,P3,0,0,0
37,1,1.1949,1,P3,1,0,0
38,1,1.6789,1,P3,0,0,0
39,1,1.3966,1,P3,0,0,0
40,1,1.3931,1,P3,0,0,0
43,1,0.7749,1,P3,0,0,0
44,1,1.4515,1,P3,1,0,0
45,1,1.216,1,P3,0,0,0
46,1,1.3646,1,P3,0,0,0
47,1,1.4651,1,P3,1,0,0
48,1,0.9497,1,P3,1,0,0
49,1,1.2503,1,P3,1,0,0
50,1,0.9829,1,P3,0,0,0
51,1,1.2513,1,P3,0,0,0
52,1,1.7039,1,P3,1,0,0
53,1,1.0925,1,P3,1,0,0
54,1,0.7371,1,P3,0,0,0
55,1,1.2136,1,P3,1,0,0
56,1,1.0982,1,P3,1,0,0
57,1,0.9908,1,P3,0,0,0
58,1,1.1874,1,P3,1,0,0
59,1,1.2879,1,P3,0,0,0
60,1,0.9165,1,P3,0,0,0
61,1,0.5851,1,P3,0,0,0
62,1,1.0057,1,P3,0,0,0
63,1,1.5862,1,P3,1,0,0
64,1,0.6788,1,P3,0,0,0
65,1,1.3554,1,P3,1,0,0
67,1,1.5774,1,P3,1,0,0
68,1,0.8938,1,P3,1,0,0
69,1,0.9634,1,P3,1,0,0
70,1,1.1279,1,P3,1,0,0
71,1,0.7645,1,P3,0,0,0
72,1,1.0811,1,P3,0,0,0
73,1,0.8295,1,P3,0,0,0
74,1,1.0181,1,P3,1,0,0
75,1,1.3267,1,P3,1,0,0
76,1,1.4593,1,P3,0,0,0
77,1,0.9838,1,P3,0,0,0
78,1,0.9161,1,P3,0,0,0
79,1,0.6577,1,P3,0,0,0
80,1,0.6463,1,P3,0,0,0
81,1,0.9869,1,P3,1,0,0
82,1,1.3273,1,P3,0,0,0
83,1,0.6039,1,P3,0,0,0
84,1,1.3285,1,P3,1,0,0
85,1,0.5971,1,P3,0,0,0
86,1,1.6016,1,P3,1,0,0
87,1,0.8542,1,P3,0,0,0
88,1,0.8108,1,P3,0,0,0
89,1,0.7274,1,P3,0,0,0
90,1,0.572,1,P3,0,0,0
91,1,1.5445,1,P3,1,0,0
92,1,0.5091,1,P3,0,0,0
93,1,1.1217,1,P3,1,0,0
94,1,1.2142,1,P3,1,0,0
95,1,1.0188,1,P3,0,0,0
96,1,1.1434,1,P3,1,0,0
97,1,0.8999,1,P3,0,0,0
98,1,0.7764,1,P3,1,0,0
99,1,0.6687,1,P3,0,0,0
100,1,0.8583,1,P3,0,0,0
101,1,0.6308,1,P3,0,0,0
102,1,1.1314,1,P3,1,0,0
103,1,0.744,1,P3,1,0,0
104,1,0.9486,1,P3,0,0,0
105,1,0.8652,1,P3,0,0,0
106,1,0.6937,1,P3,0,0,0
107,1,1.1543,1,P3,1,0,0
108,1,1.2148,1,P3,0,0,0
109,1,1.3473,1,P3,0,0,0
110,1,0.8639,1,P3,0,0,0
111,1,1.2365,1,P3,1,0,0
112,1,0.6811,1,P3,1,0,0
113,1,1.3257,1,P3,1,0,0
114,1,1.1782,1,P3,1,0,0
115,1,0.8708,1,P3,1,0,0
116,1,0.9234,1,P3,1,0,0
117,1,0.9519,1,P3,1,0,0
118,1,0.7645,1,P3,1,0,0
119,1,0.8171,1,P3,1,0,0
120,1,1.1257,1,P3,1,0,0
121,1,0.7063,1,P3,1,0,0
122,1,1.0067,1,P3,0,0,0
123,1,0.6353,1,P3,0,0,0
124,1,1.1839,1,P3,0,0,0
125,1,0.8684,1,P3,0,0,0
127,1,0.8607,1,P3,0,0,0
128,1,0.9293,1,P3,0,0,0
129,1,0.8139,1,P3,0,0,0
130,1,1.4585,1,P3,1,0,0
131,1,1.303,1,P3,1,0,0
132,1,0.8596,1,P3,0,0,0
133,1,1.0962,1,P3,0,0,0
134,1,1.5648,1,P3,1,0,0
135,1,1.2893,1,P3,1,0,0
136,1,1.1659,1,P3,0,0,0
137,1,1.2105,1,P3,1,0,0
138,1,1.1671,1,P3,1,0,0
139,1,1.4276,1,P3,0,0,0
140,1,1.3681,1,P3,1,0,0
141,1,1.2047,1,P3,0,0,0
142,1,0.7693,1,P3,0,0,0
143,1,1.2538,1,P3,1,0,0
144,1,0.9864,1,P3,1,0,0
145,1,1.1667,1,P3,1,0,0
146,1,1.4523,1,P3,1,0,0
147,1,1.0648,1,P3,1,0,0
148,1,0.8934,1,P3,0,0,0
150,1,0.9426,1,P3,0,0,0
151,1,0.6911,1,P3,1,0,0
152,1,1.4076,1,P3,1,0,0
153,1,0.8042,1,P3,0,0,0
154,1,0.9928,0,P3,1,0,0
155,1,1.205,1,P3,0,0,0
156,1,1.0266,1,P3,1,0,0
157,1,1.4632,1,P3,0,0,0
158,1,0.9158,1,P3,0,0,0
159,1,1.2403,1,P3,1,0,0
160,1,1.1409,1,P3,1,0,0
161,1,1.1134,1,P3,1,0,0
162,1,0.918,1,P3,0,0,0
163,1,1.1625,1,P3,0,0,0
164,1,1.1671,1,P3,0,0,0
165,1,0.8437,1,P3,0,0,0
166,1,1.0803,1,P3,1,0,0
167,1,0.8848,1,P3,1,0,0
168,1,1.3214,1,P3,0,0,0
169,1,1.454,1,P3,0,0,0
170,1,1.1066,1,P3,1,0,0
171,1,1.0631,1,P3,1,0,0
172,1,1.7237,1,P3,1,0,0
173,1,0.8643,1,P3,0,0,0
174,1,1.0129,1,P3,1,0,0
175,1,0.9295,1,P3,0,0,0
176,1,1.014,1,P3,0,0,0
177,1,0.9865,1,P3,1,0,0
178,1,0.5911,1,P3,0,0,0
179,1,1.3796,1,P3,1,0,0
180,1,0.7762,1,P3,1,0,0
181,1,1.0688,1,P3,0,0,0
182,1,0.6814,1,P3,1,0,0
183,1,0.8699,1,P3,1,0,0
184,1,0.6345,1,P3,0,0,0
185,1,0.6471,1,P3,1,0,0
187,1,1.5068,1,P3,1,0,0
188,1,1.3673,1,P3,1,0,0
189,1,0.7479,1,P3,0,0,0
190,1,0.8725,1,P3,1,0,0
191,1,1.261,1,P3,1,0,0
192,1,0.8816,1,P3,0,0,0
193,1,0.8382,1,P3,1,0,0
194,1,0.6748,1,P3,0,0,0
195,1,1.5274,1,P3,1,0,0
196,1,0.6679,1,P3,0,0,0
197,1,0.8165,1,P3,0,0,0
198,1,1.2851,1,P3,0,0,0
199,1,0.7057,1,P3,0,0,0
200,1,0.9262,1,P3,1,0,0
201,1,1.2674,1,P3,1,0,0
202,1,0.736,1,P3,0,0,0
203,1,0.6686,1,P3,0,0,0
204,1,1.0651,1,P3,1,0,0
205,1,0.6617,1,P3,0,0,0
206,1,1.2263,1,P3,1,0,0
207,1,0.8869,1,P3,1,0,0
208,1,0.8594,1,P3,0,0,0
209,1,0.936,1,P3,1,0,0
210,1,1.4206,1,P3,1,0,0
211,1,0.7772,1,P3,0,0,0
212,1,0.8056,1,P3,0,0,0
213,1,0.6582,1,P3,0,0,0
214,1,1.0708,1,P3,1,0,0
215,1,0.8594,1,P3,1,0,0
216,1,0.7679,1,P3,0,0,0
217,1,1.4205,1,P3,0,0,0
218,1,1.1691,1,P3,0,0,0
219,1,1.5576,1,P3,1,0,0
220,1,1.1702,1,P3,1,0,0
221,1,0.9028,1,P3,0,0,0
222,1,1.5074,1,P3,1,0,0
223,1,1.0559,1,P3,1,0,0
224,1,0.8605,1,P3,1,0,0
225,1,1.0171,1,P3,0,0,0
226,1,0.7417,1,P3,0,0,0
227,1,0.7062,1,P3,0,0,0
228,1,0.6467,1,P3,0,0,0
229,1,1.1313,1,P3,1,0,0
230,1,0.8319,1,P3,0,0,0
231,1,0.8844,1,P3,0,0,0
232,1,0.705,1,P3,0,0,0
233,1,1.2536,1,P3,1,0,0
234,1,0.8022,1,P3,0,0,0
235,1,0.8227,1,P3,0,0,0
236,1,1.1713,1,P3,1,0,0
237,1,0.7919,1,P3,0,0,0
238,1,0.7405,1,P3,0,0,0
239,1,0.7531,1,P3,1,0,0
240,1,0.7576,1,P3,1,0,0
241,1,1.1702,1,P3,1,0,0
242,1,0.9348,1,P3,0,0,0
243,1,0.7714,1,P3,0,0,0
244,1,1.3838,1,P3,1,0,0
245,1,1.0204,1,P3,1,0,0
247,1,0.7007,1,P3,1,0,0
248,1,0.7933,1,P3,1,0,0
249,1,0.8619,1,P3,0,0,0
250,1,0.851,1,P3,1,0,0
251,1,0.5916,1,P3,0,0,0
252,1,0.6202,1,P3,0,0,0
253,1,0.7048,1,P3,0,0,0
254,1,0.8374,1,P3,0,0,0
255,1,0.7859,1,P3,1,0,0
256,1,0.9105,1,P3,0,0,0
257,1,0.9631,1,P3,1,0,0
258,1,0.9916,1,P3,1,0,0
259,1,1.4042,1,P3,1,0,0
260,1,0.8888,1,P3,1,0,0
261,1,1.2934,1,P3,1,0,0
262,1,1.0499,1,P3,1,0,0
263,1,0.8064,1,P3,0,0,0
264,1,0.931,1,P3,0,0,0
265,1,0.9916,1,P3,0,0,0
266,1,1.5878,1,P3,1,0,0
267,1,1.4414,1,P3,1,0,0
268,1,0.638,1,P3,0,0,0
269,1,0.7226,1,P3,0,0,0
270,1,0.6072,1,P3,0,0,0
271,1,1.0917,1,P3,0,0,0
272,1,0.6082,1,P3,0,0,0
273,1,0.7968,1,P3,1,0,0
274,1,0.8173,1,P3,0,0,0
275,1,0.5979,1,P3,0,0,0
276,1,1.1385,1,P3,1,0,0
277,1,0.8311,1,P3,0,0,0
278,1,1.1156,1,P3,1,0,0
279,1,1.2082,1,P3,0,0,0
280,1,0.7488,1,P3,0,0,0
281,1,0.6974,1,P3,0,0,0
282,1,0.8779,1,P3,0,0,0
283,1,1.4905,1,P3,1,0,0
284,1,0.6311,1,P3,0,0,0
285,1,1.0437,1,P3,1,0,0
286,1,0.9523,1,P3,1,0,0
287,1,0.7808,1,P3,0,0,0
288,1,0.9293,1,P3,1,0,0
289,1,0.8219,1,P3,0,0,0
290,1,0.8025,1,P3,1,0,0
291,1,0.639,1,P3,0,0,0
292,1,0.9476,1,P3,0,0,0
293,1,0.6962,1,P3,0,0,0
294,1,0.9487,1,P3,1,0,0
295,1,1.0653,1,P3,1,0,0
296,1,0.9179,1,P3,0,0,0
297,1,0.6985,1,P3,0,0,0
298,1,0.599,1,P3,0,0,0
299,1,1.0996,1,P3,1,0,0
300,1,1.1202,1,P3,0,0,0
301,1,0.7728,1,P3,0,0,0
302,1,0.5933,1,P3,0,0,0
303,1,0.9659,1,P3,1,0,0
304,1,0.8504,1,P3,1,0,0
305,1,0.839,1,P3,1,0,0
2,1,1.2925,1,P4,0,0,1
3,1,1.1662,1,P4,1,0,0
4,1,0.928,1,P4,0,0,0
5,1,1.0339,1,P4,0,0,0
7,1,1.0579,1,P4,0,0,0
8,1,0.8677,1,P4,1,0,0
9,1,1.0775,1,P4,1,0,0
10,1,0.9513,1,P4,0,0,0
11,1,0.8651,1,P4,0,0,0
12,1,0.8028,1,P4,1,0,0
13,1,0.8686,1,P4,0,0,0
14,1,0.8065,1,P4,1,0,0
15,1,1.2163,1,P4,1,0,0
16,1,0.97,1,P4,0,0,0
17,1,0.8598,1,P4,1,0,0
18,1,1.3896,1,P4,1,0,0
19,1,1.1353,1,P4,0,0,0
21,1,1.539,1,P4,0,0,0
22,1,1.0128,1,P4,1,0,0
23,1,0.9185,1,P4,1,0,0
24,1,1.0004,1,P4,0,0,0
25,1,1.0422,1,P4,0,0,0
26,1,0.852,1,P4,0,0,0
27,1,1.1577,1,P4,1,0,0
28,1,1.1355,1,P4,1,0,0
29,1,1.1373,1,P4,0,0,0
30,1,1.147,1,P4,1,0,0
31,1,1.4289,1,P4,1,0,0
32,1,1.4467,1,P4,1,0,0
33,1,1.4485,1,P4,0,0,0
34,1,1.0182,1,P4,0,0,0
35,1,0.948,1,P4,0,0,0
36,1,1.0139,1,P4,0,0,0
37,1,0.9917,1,P4,1,0,0
38,1,0.8654,1,P4,0,0,0
39,1,0.9392,1,P4,0,0,0
40,1,0.877,1,P4,0,0,0
41,1,1.1188,1,P4,1,0,0
42,1,0.8806,1,P4,0,0,0
43,1,1.0424,1,P4,0,0,0
44,1,1.2522,1,P4,1,0,0
45,1,0.9979,1,P4,0,0,0
46,1,1.0717,1,P4,0,0,0
47,1,1.2815,1,P4,1,0,0
48,1,1.3313,1,P4,1,0,0
49,1,1.2131,1,P4,1,0,0
50,1,0.8309,1,P4,0,0,0
51,1,0.9127,1,P4,0,0,0
52,1,1.0345,1,P4,1,0,0
53,1,1.0843,1,P4,1,0,0
54,1,0.9821,1,P4,0,0,0
55,1,0.8485,1,P4,1,0,0
56,1,0.8176,1,P4,1,0,0
57,1,0.6754,1,P4,0,0,0
58,1,0.8932,1,P4,1,0,0
59,1,0.799,1,P4,0,0,0
60,1,1.1928,1,P4,0,0,0
61,1,0.8426,1,P4,0,0,0
62,1,0.7004,1,P4,0,0,0
63,1,0.7262,1,P4,1,0,0
64,1,0.536,1,P4,0,0,0
65,1,1.4658,1,P4,1,0,0
67,1,0.6792,1,P4,1,0,0
68,1,0.977,1,P4,1,0,0
69,1,1.1788,1,P4,1,0,0
70,1,1.0366,1,P4,1,0,0
71,1,0.8703,1,P4,0,0,0
72,1,0.7922,1,P4,0,0,0
73,1,0.882,1,P4,0,0,0
74,1,1.0518,1,P4,1,0,0
75,1,0.9255,1,P4,1,0,0
76,1,0.8314,1,P4,0,0,0
77,1,0.8332,1,P4,0,0,0
78,1,0.8429,1,P4,0,0,0
79,1,0.7007,1,P4,0,0,0
80,1,0.8545,1,P4,0,0,0
81,1,0.8403,1,P4,1,0,0
82,1,0.898,1,P4,0,0,0
83,1,0.9319,1,P4,0,0,0
84,1,1.0777,1,P4,1,0,0
85,1,0.7595,1,P4,0,0,0
86,1,0.8892,1,P4,1,0,0
87,1,1.083,1,P4,0,0,0
88,1,0.8608,1,P4,0,0,0
89,1,0.9666,1,P4,0,0,0
90,1,0.8324,1,P4,0,0,0
91,1,0.9062,1,P4,1,0,0
92,1,0.74,1,P4,0,0,0
93,1,1.2218,1,P4,1,0,0
94,1,1.3676,1,P4,1,0,0
95,1,1.2654,1,P4,0,0,0
96,1,0.8352,1,P4,1,0,0
97,1,1.0129,1,P4,0,0,0
98,1,0.9347,1,P4,1,0,0
99,1,0.7446,1,P4,0,0,0
100,1,0.9862,1,P4,0,0,0
101,1,1.0121,1,P4,0,0,0
102,1,1.3899,1,P4,1,0,0
103,1,0.7997,1,P4,1,0,0
104,1,1.0334,1,P4,0,0,0
105,1,0.7633,1,P4,0,0,0
106,1,0.7171,1,P4,0,0,0
107,1,1.1429,1,P4,1,0,0
108,1,1.1526,1,P4,0,0,0
109,1,0.8184,1,P4,0,0,0
110,1,0.5963,1,P4,0,0,0
111,1,1.1259,1,P4,1,0,0
112,1,0.7598,1,P4,1,0,0
114,1,0.9954,1,P4,1,0,0
115,1,0.8931,1,P4,1,0,0
116,1,0.7989,1,P4,1,0,0
117,1,0.8808,0,P4,1,0,0
118,1,0.8026,1,P4,1,0,0
119,1,1.4442,1,P4,1,0,0
120,1,0.8221,1,P4,1,0,0
121,1,0.888,1,P4,1,0,0
122,1,0.9137,1,P4,0,0,0
123,1,0.9475,1,P4,0,0,0
124,1,1.1013,1,P4,0,0,0
125,1,0.7031,1,P4,0,0,0
128,1,0.7683,1,P4,0,0,0
129,1,0.8661,1,P4,0,0,0
130,1,0.6599,1,P4,1,0,0
131,1,0.8457,1,P4,1,0,0
132,1,0.5595,1,P4,0,0,0
133,1,0.9772,1,P4,0,0,0
134,1,1.2831,1,P4,1,0,0
135,1,1.2928,1,P4,1,0,0
136,1,1.0946,1,P4,0,0,0
137,1,0.9524,1,P4,1,0,0
138,1,1.0502,1,P4,1,0,0
139,1,1.124,1,P4,0,0,0
140,1,0.5178,1,P4,1,0,0
141,1,1.1916,1,P4,0,0,0
143,1,0.8351,1,P4,1,0,0
144,1,0.9409,1,P4,1,0,0
145,1,1.0228,1,P4,1,0,0
146,1,0.6325,1,P4,1,0,0
147,1,1.1943,1,P4,1,0,0
148,1,1.2521,1,P4,0,0,0
149,1,1.3899,1,P4,1,0,0
150,1,0.8877,1,P4,0,0,0
151,1,1.0095,1,P4,1,0,0
152,1,1.3233,1,P4,1,0,0
153,1,0.6771,1,P4,0,0,0
154,1,1.6468,1,P4,1,0,0
155,1,0.8726,1,P4,0,0,0
156,1,1.0744,1,P4,1,0,0
157,1,0.7962,1,P4,0,0,0
158,1,0.982,1,P4,0,0,0
159,1,1.0558,1,P4,1,0,0
160,1,1.4096,1,P4,1,0,0
161,1,1.4114,1,P4,1,0,0
162,1,0.9492,1,P4,0,0,0
163,1,1.015,1,P4,0,0,0
164,1,0.6967,1,P4,0,0,0
165,1,0.8985,1,P4,0,0,0
166,1,1.4283,1,P4,1,0,0
167,1,0.9822,1,P4,1,0,0
168,1,0.7839,1,P4,0,0,0
169,1,0.7937,1,P4,0,0,0
170,1,0.9395,1,P4,1,0,0
171,1,1.3013,0,P4,1,0,0
172,1,1.047,1,P4,1,0,0
173,1,0.7849,1,P4,0,0,0
174,1,0.9547,1,P4,1,0,0
175,1,1.0284,1,P4,0,0,0
176,1,0.9982,1,P4,0,0,0
177,1,1.032,1,P4,1,0,0
178,1,0.9058,1,P4,0,0,0
179,1,1.3636,1,P4,1,0,0
180,1,1.0374,1,P4,1,0,0
181,1,0.5832,1,P4,0,0,0
182,1,0.873,1,P4,1,0,0
183,1,1.1627,1,P4,1,0,0
184,1,0.5806,1,P4,0,0,0
185,1,1.1744,1,P4,1,0,0
187,1,0.9016,1,P4,1,0,0
188,1,0.8953,1,P4,1,0,0
189,1,1.1211,1,P4,0,0,0
190,1,1.1629,1,P4,1,0,0
191,1,1.0127,1,P4,1,0,0
192,1,0.8145,1,P4,0,0,0
193,1,0.7523,1,P4,1,0,0
194,1,0.6981,1,P4,0,0,0
195,1,1.4678,1,P4,1,0,0
196,1,1.2136,1,P4,0,0,0
197,1,0.8474,1,P4,0,0,0
198,1,0.8493,1,P4,0,0,0
199,1,0.731,1,P4,0,0,0
200,1,0.8608,1,P4,1,0,0
201,1,1.0786,1,P4,1,0,0
202,1,0.7125,1,P4,0,0,0
203,1,0.8502,1,P4,0,0,0
204,1,0.78,1,P4,1,0,0
205,1,0.7498,1,P4,0,0,0
206,1,0.8235,1,P4,1,0,0
207,1,1.1533,1,P4,1,0,0
208,1,1.0271,1,P4,0,0,0
209,1,0.853,1,P4,1,0,0
210,1,0.9747,1,P4,1,0,0
211,1,0.9045,1,P4,0,0,0
212,1,0.7063,1,P4,0,0,0
213,1,0.9241,1,P4,0,0,0
214,1,0.8858,1,P4,1,0,0
215,1,0.9357,1,P4,1,0,0
216,1,0.8575,1,P4,0,0,0
217,1,0.6752,1,P4,0,0,0
218,1,0.741,1,P4,0,0,0
219,1,0.7908,1,P4,1,0,0
220,1,0.8887,1,P4,1,0,0
221,1,1.0424,1,P4,0,0,0
222,1,1.2442,1,P4,1,0,0
223,1,1.046,1,P4,1,0,0
224,1,0.8878,1,P4,1,0,0
225,1,0.9135,1,P4,0,0,0
226,1,0.9394,1,P4,0,0,0
227,1,0.6372,1,P4,0,0,0
228,1,0.9509,1,P4,0,0,0
229,1,1.1527,1,P4,1,0,0
230,1,1.0505,1,P4,0,0,0
231,1,0.7803,1,P4,0,0,0
232,1,0.6781,1,P4,0,0,0
233,1,0.7919,1,P4,1,0,0
234,1,0.6577,1,P4,0,0,0
235,1,0.6835,1,P4,0,0,0
236,1,0.9812,1,P4,1,0,0
237,1,0.8551,1,P4,0,0,0
238,1,0.7208,1,P4,0,0,0
239,1,0.8746,1,P4,1,0,0
241,1,0.8462,1,P4,1,0,0
242,1,0.744,1,P4,0,0,0
243,1,0.8658,1,P4,0,0,0
244,1,0.8516,1,P4,1,0,0
245,1,0.8934,1,P4,1,0,0
247,1,1.109,1,P4,1,0,0
248,1,0.6788,1,P4,1,0,0
249,1,0.6806,1,P4,0,0,0
250,1,1.0344,1,P4,1,0,0
251,1,0.6842,1,P4,0,0,0
252,1,1.662,1,P4,0,0,0
253,1,0.9278,1,P4,0,0,0
254,1,0.7456,1,P4,0,0,0
255,1,1.0514,1,P4,1,0,0
256,1,0.7331,1,P4,0,0,0
257,1,1.2469,1,P4,1,0,0
258,1,1.0887,1,P4,1,0,0
259,1,0.8426,1,P4,1,0,0
260,1,1.1163,1,P4,1,0,0
261,1,1.1581,1,P4,1,0,0
262,1,0.8959,1,P4,1,0,0
263,1,0.6497,1,P4,0,0,0
264,1,0.7875,1,P4,0,0,0
265,1,0.7333,1,P4,0,0,0
266,1,0.9831,1,P4,1,0,0
267,1,1.2008,1,P4,1,0,0
268,1,0.8826,1,P4,0,0,0
269,1,1.0924,1,P4,0,0,0
270,1,0.8622,1,P4,0,0,0
271,1,0.744,1,P4,0,0,0
272,1,0.9538,1,P4,0,0,0
273,1,1.0116,1,P4,1,0,0
274,1,0.7734,1,P4,0,0,0
275,1,0.7352,1,P4,0,0,0
276,1,1.1769,1,P4,1,0,0
277,1,1.0188,1,P4,0,0,0
278,1,0.8125,1,P4,1,0,0
279,1,0.9423,1,P4,0,0,0
280,1,1.0241,1,P4,0,0,0
281,1,0.8259,1,P4,0,0,0
282,1,0.8037,1,P4,0,0,0
283,1,1.0615,1,P4,1,0,0
284,1,0.6553,1,P4,0,0,0
285,1,1.1691,1,P4,1,0,0
286,1,1.5708,1,P4,1,0,0
287,1,0.8047,1,P4,0,0,0
288,1,0.6865,1,P4,1,0,0
289,1,0.9522,1,P4,0,0,0
290,1,0.906,1,P4,1,0,0
291,1,0.6918,1,P4,0,0,0
292,1,0.6856,1,P4,0,0,0
293,1,0.8074,1,P4,0,0,0
294,1,0.9452,1,P4,1,0,0
295,1,0.803,1,P4,1,0,0
296,1,0.7808,1,P4,0,0,0
297,1,0.5426,1,P4,0,0,0
298,1,0.6964,1,P4,0,0,0
299,1,0.9862,0,P4,1,0,0
300,1,0.7238,1,P4,0,0,0
301,1,0.7337,1,P4,0,0,0
302,1,0.9275,1,P4,0,0,0
303,1,0.9533,1,P4,1,0,0
304,1,0.8671,1,P4,1,0,0
2,1,1.7029,1,P5,0,0,1
4,1,1.6487,1,P5,0,0,0
5,1,1.6293,1,P5,0,0,0
7,1,1.2912,1,P5,0,0,0
8,1,1.5917,0,P5,1,0,0
11,1,1.4214,1,P5,0,0,0
12,1,1.546,1,P5,1,0,0
13,1,1.2866,1,P5,0,0,0
14,1,1.4111,1,P5,1,0,0
15,1,1.4877,1,P5,1,0,0
16,1,1.2602,1,P5,0,0,0
17,1,1.3049,1,P5,1,0,0
19,1,1.5859,1,P5,0,0,0
21,1,1.5791,1,P5,0,0,0
22,1,1.4157,1,P5,1,0,0
23,1,1.4923,1,P5,1,0,0
24,1,1.2492,1,P5,0,0,0
25,1,1.2307,1,P5,0,0,0
26,1,1.2433,1,P5,0,0,0
27,1,1.3519,1,P5,1,0,0
28,1,1.5885,1,P5,1,0,0
29,1,1.505,1,P5,0,0,0
31,1,1.5942,1,P5,1,0,0
32,1,1.5427,1,P5,1,0,0
33,1,1.5553,1,P5,0,0,0
34,1,1.2799,1,P5,0,0,0
35,1,1.4524,1,P5,0,0,0
36,1,1.433,1,P5,0,0,0
37,1,1.6696,1,P5,1,0,0
38,1,1.3142,1,P5,0,0,0
39,1,1.3267,1,P5,0,0,0
40,1,1.0193,1,P5,0,0,0
41,1,1.3199,1,P5,1,0,0
42,1,1.2684,1,P5,0,0,0
43,1,1.201,1,P5,0,0,0
45,1,1.1628,1,P5,0,0,0
46,1,0.9033,1,P5,0,0,0
48,1,1.5205,1,P5,1,0,0
49,1,1.1171,1,P5,1,0,0
50,1,1.0177,1,P5,0,0,0
51,1,1.0143,1,P5,0,0,0
52,1,1.3788,1,P5,1,0,0
53,1,1.5034,1,P5,1,0,0
54,1,1.308,1,P5,0,0,0
55,1,1.4165,1,P5,1,0,0
57,1,1.2177,1,P5,0,0,0
58,1,1.6943,1,P5,1,0,0
59,1,1.2589,1,P5,0,0,0
60,1,1.7194,1,P5,0,0,0
61,1,1.316,1,P5,0,0,0
62,1,1.2653,1,P5,0,0,0
63,1,1.2778,1,P5,1,0,0
64,1,1.0024,1,P5,0,0,0
67,1,1.629,1,P5,1,0,0
70,1,1.3947,1,P5,1,0,0
71,1,1.5512,1,P5,0,0,0
72,1,1.4039,1,P5,0,0,0
73,1,1.1444,1,P5,0,0,0
74,1,1.4129,1,P5,1,0,0
75,1,1.6656,1,P5,1,0,0
76,1,1.0541,1,P5,0,0,0
77,1,0.9707,1,P5,0,0,0
78,1,1.5433,1,P5,0,0,0
79,1,1.1238,1,P5,0,0,0
80,1,0.8964,1,P5,0,0,0
82,1,1.2416,1,P5,0,0,0
83,1,1.2221,1,P5,0,0,0
84,1,1.6186,1,P5,1,0,0
85,1,1.0553,1,P5,0,0,0
88,1,1.5726,1,P5,0,0,0
89,1,1.2342,1,P5,0,0,0
90,1,1.5828,1,P5,0,0,0
92,1,1.0966,1,P5,0,0,0
93,1,1.6692,1,P5,1,0,0
95,1,1.5502,1,P5,0,0,0
96,1,1.4509,1,P5,1,0,0
97,1,1.1914,1,P5,0,0,0
98,1,1.1081,1,P5,1,0,0
99,1,1.4726,1,P5,0,0,0
100,1,0.9415,1,P5,0,0,0
101,1,1.307,1,P5,0,0,0
104,1,1.7134,1,P5,0,0,0
105,1,0.8461,1,P5,0,0,0
109,1,1.537,1,P5,0,0,0
110,1,0.9415,1,P5,0,0,0
111,1,1.6261,1,P5,1,0,0
115,1,1.6124,1,P5,1,0,0
116,1,1.641,1,P5,1,0,0
117,1,1.5895,1,P5,1,0,0
118,1,1.3302,1,P5,1,0,0
119,1,1.4707,1,P5,1,0,0
121,1,1.3678,1,P5,1,0,0
122,1,1.2684,1,P5,0,0,0
123,1,1.2976,1,P5,0,0,0
124,1,1.1982,1,P5,0,0,0
125,1,1.0988,1,P5,0,0,0
127,1,1.5182,1,P5,0,0,0
128,1,1.0827,1,P5,0,0,0
129,1,0.9833,1,P5,0,0,0
130,1,1.4599,1,P5,1,0,0
131,1,1.1051,1,P5,1,0,0
132,1,1.0696,1,P5,0,0,0
133,1,1.0183,1,P5,0,0,0
134,1,1.7348,1,P5,1,0,0
136,1,1.5679,1,P5,0,0,0
137,1,1.7246,1,P5,1,0,0
139,1,1.1896,1,P5,0,0,0
141,1,1.1348,1,P5,0,0,0
142,1,1.1794,1,P5,0,0,0
143,1,1.4319,1,P5,1,0,0
144,1,1.7485,1,P5,1,0,0
145,1,1.4411,1,P5,1,0,0
146,1,1.5656,1,P5,1,0,0
147,1,1.6263,1,P5,1,0,0
153,1,1.4617,1,P5,0,0,0
155,1,1.2468,1,P5,0,0,0
156,1,1.4673,1,P5,1,0,0
157,1,1.384,1,P5,0,0,0
158,1,1.4285,1,P5,0,0,0
159,1,1.713,1,P5,1,0,0
160,1,1.2937,1,P5,1,0,0
161,1,1.5622,1,P5,1,0,0
162,1,1.2388,1,P5,0,0,0
163,1,1.2514,1,P5,0,0,0
164,1,1.104,1,P5,0,0,0
165,1,1.1005,1,P5,0,0,0
168,1,1.3462,1,P5,0,0,0
169,1,1.3908,1,P5,0,0,0
173,1,1.137,1,P5,0,0,0
175,1,1.7382,1,P5,0,0,0
176,1,1.3667,1,P5,0,0,0
177,1,1.4434,1,P5,1,0,0
178,1,1.1679,1,P5,0,0,0
179,1,1.4205,1,P5,1,0,0
180,1,1.6411,1,P5,1,0,0
181,1,1.3176,1,P5,0,0,0
182,1,1.4419,1,P5,1,0,0
183,1,1.6314,1,P5,1,0,0
184,1,1.18,1,P5,0,0,0
185,1,1.4646,1,P5,1,0,0
187,2,0.9127,1,P5,0,0,1
188,2,1.5495,1,P5,1,0,0
189,2,1.2431,1,P5,0,0,0
190,2,1.1277,1,P5,0,0,0
192,2,0.981,1,P5,0,0,0
193,2,0.9775,1,P5,1,0,0
194,2,1.4381,1,P5,1,0,0
195,2,0.9226,1,P5,0,0,0
196,2,1.3352,1,P5,0,0,0
200,2,1.4655,1,P5,1,0,0
201,2,1.1581,1,P5,0,0,0
202,2,1.7467,1,P5,1,0,0
203,2,1.3912,1,P5,1,0,0
204,2,1.7398,1,P5,0,0,0
205,2,1.3203,1,P5,0,0,0
206,2,1.493,1,P5,0,0,0
209,2,1.5626,1,P5,0,0,0
210,2,0.8712,1,P5,0,0,0
214,2,1.5622,1,P5,0,0,0
215,2,1.6227,1,P5,1,0,0
216,2,1.6353,1,P5,1,0,0
218,2,1.3084,1,P5,0,0,0
219,2,1.673,1,P5,0,0,0
220,2,1.3176,1,P5,0,0,0
221,2,1.2981,1,P5,0,0,0
222,2,1.7427,1,P5,1,0,0
223,2,1.3073,1,P5,0,0,0
224,2,1.2079,1,P5,0,0,0
225,2,1.0925,1,P5,0,0,0
226,2,1.5851,1,P5,1,0,0
227,2,1.1016,1,P5,0,0,0
228,2,1.0181,1,P5,0,0,0
229,2,1.4147,1,P5,1,0,0
230,2,1.0913,1,P5,0,0,0
231,2,1.0878,1,P5,0,0,0
232,2,1.5004,1,P5,1,0,0
233,2,1.593,1,P5,1,0,0
234,2,1.1896,1,P5,1,0,0
235,2,1.0901,1,P5,0,0,0
236,2,1.2308,1,P5,0,0,0
238,2,1.2718,1,P5,1,0,0
239,2,1.1885,1,P5,0,0,0
240,2,1.681,1,P5,1,0,0
241,2,1.3416,1,P5,1,0,0
242,2,1.3862,1,P5,0,0,0
243,2,1.6547,1,P5,1,0,0
244,2,1.1873,1,P5,0,0,0
245,2,1.1838,1,P5,0,0,0
246,2,0.9725,1,P5,0,0,0
247,2,1.321,1,P5,0,0,0
248,2,1.0615,1,P5,1,0,0
249,2,0.8342,1,P5,0,0,0
2,1,1.3051,1,P6,0,0,1
3,1,1.4697,1,P6,1,0,0
4,1,1.3463,1,P6,0,0,0
5,1,1.3588,1,P6,0,0,0
7,1,1.5668,1,P6,0,0,0
8,1,1.6354,1,P6,1,0,0
9,1,1.3679,1,P6,1,0,0
10,1,1.1805,1,P6,0,0,0
11,1,1.185,1,P6,0,0,0
12,1,1.3576,1,P6,1,0,0
13,1,1.1303,1,P6,0,0,0
14,1,1.5108,1,P6,1,0,0
15,1,1.3634,1,P6,1,0,0
16,1,1.1839,1,P6,0,0,0
17,1,1.3885,1,P6,1,0,0
18,1,1.5291,1,P6,1,0,0
19,1,1.6936,1,P6,0,0,0
20,1,1.2342,1,P6,0,0,0
21,1,1.1188,1,P6,0,0,0
22,1,1.6593,1,P6,1,0,0
23,1,1.488,1,P6,1,0,0
24,1,1.4365,1,P6,0,0,0
25,1,1.2491,1,P6,0,0,0
26,1,1.3416,1,P6,0,0,0
27,1,1.5942,1,P6,1,0,0
29,1,1.1393,1,P6,0,0,0
30,1,1.5199,1,P6,1,0,0
32,1,1.2971,1,P6,1,0,0
33,1,1.4216,1,P6,0,0,0
34,1,1.6582,1,P6,0,0,0
35,1,1.2388,1,P6,0,0,0
36,1,1.2037,1,P6,0,0,0
38,1,1.3578,1,P6,0,0,0
39,1,1.1943,1,P6,0,0,0
40,1,1.271,1,P6,0,0,0
41,1,1.4196,1,P6,1,0,0
42,1,1.3361,1,P6,0,0,0
44,1,1.6092,1,P6,1,0,0
45,1,1.2698,1,P6,0,0,0
46,1,1.1304,1,P6,0,0,0
47,1,1.5189,1,P6,1,0,0
49,1,1.5361,1,P6,1,0,0
50,1,1.5007,1,P6,0,0,0
51,1,1.3853,1,P6,0,0,0
53,1,1.6104,1,P6,1,0,0
54,1,1.5669,1,P6,0,0,0
57,1,1.3486,1,P6,0,0,0
59,1,1.6458,1,P6,0,0,0
61,1,1.175,1,P6,0,0,0
62,1,1.0515,1,P6,0,0,0
63,1,1.3921,1,P6,1,0,0
64,1,0.7886,1,P6,0,0,0
67,1,1.2302,1,P6,1,0,0
68,1,1.4588,1,P6,1,0,0
69,1,1.4153,1,P6,1,0,0
70,1,1.3319,1,P6,1,0,0
71,1,1.1364,1,P6,0,0,0
72,1,0.861,1,P6,0,0,0
73,1,0.9056,1,P6,0,0,0
74,1,1.2382,1,P6,1,0,0
75,1,1.5227,1,P6,1,0,0
76,1,0.9193,1,P6,0,0,0
77,1,0.8199,1,P6,0,0,0
78,1,0.7051,1,P6,0,0,0
79,1,0.8457,1,P6,0,0,0
80,1,0.7222,1,P6,0,0,0
81,1,1.4708,1,P6,1,0,0
82,1,1.0674,1,P6,0,0,0
83,1,0.808,1,P6,0,0,0
84,1,1.7406,1,P6,1,0,0
85,1,1.0891,1,P6,0,0,0
86,1,1.7097,1,P6,1,0,0
87,1,1.1543,1,P6,0,0,0
88,1,0.8628,1,P6,0,0,0
89,1,0.8674,1,P6,0,0,0
90,1,0.7439,1,P6,0,0,0
91,1,1.0286,1,P6,1,0,0
92,1,0.8811,1,P6,0,0,0
95,1,1.0228,1,P6,0,0,0
97,1,1.2559,1,P6,0,0,0
98,1,1.6285,1,P6,1,0,0
99,1,0.8651,1,P6,0,0,0
100,1,0.7897,1,P6,0,0,0
101,1,0.7623,1,P6,0,0,0
102,1,1.4468,1,P6,1,0,0
103,1,1.5874,1,P6,1,0,0
104,1,1.08,1,P6,0,0,0
105,1,1.0445,1,P6,0,0,0
106,1,0.7451,1,P6,0,0,0
107,1,1.1576,1,P6,1,0,0
108,1,1.2102,1,P6,0,0,0
109,1,0.8628,1,P6,0,0,0
110,1,0.8674,1,P6,0,0,0
111,1,1.064,1,P6,1,0,0
112,1,1.2132,1,P6,1,0,0
113,1,1.2978,1,P6,1,0,0
114,1,1.1103,1,P6,1,0,0
115,1,1.2909,1,P6,1,0,0
117,1,1.556,1,P6,1,0,0
118,1,1.2967,1,P6,1,0,0
121,1,1.3823,1,P6,1,0,0
122,1,1.0509,1,P6,0,0,0
124,1,0.94,1,P6,0,0,0
125,1,0.8087,1,P6,0,0,0
127,1,0.9201,1,P6,0,0,0
128,1,0.8047,1,P6,0,0,0
129,1,0.7613,1,P6,0,0,0
130,1,1.0939,1,P6,1,0,0
131,1,1.3544,1,P6,1,0,0
132,1,0.791,1,P6,0,0,0
133,1,0.7075,1,P6,0,0,0
134,1,1.3521,1,P6,1,0,0
135,1,1.6446,1,P6,1,0,0
136,1,0.9052,1,P6,0,0,0
137,1,1.2698,1,P6,1,0,0
138,1,1.6104,1,P6,1,0,0
139,1,1.287,1,P6,0,0,0
140,1,1.5315,1,P6,1,0,0
141,1,1.0961,1,P6,0,0,0
142,1,0.7087,1,P6,0,0,0
145,1,1.451,1,P6,1,0,0
146,1,1.6556,1,P6,1,0,0
148,1,1.1055,1,P6,0,0,0
149,1,1.094,1,P6,1,0,0
150,1,1.1946,1,P6,0,0,0
151,1,1.0951,1,P6,1,0,0
152,1,1.4117,1,P6,1,0,0
153,1,1.3203,1,P6,0,0,0
154,1,1.6369,1,P6,1,0,0
155,1,1.098,1,P6,0,0,0
156,1,1.5426,1,P6,1,0,0
157,1,0.9633,1,P6,0,0,0
158,1,1.2158,1,P6,0,0,0
159,1,1.4284,1,P6,1,0,0
160,1,1.6009,1,P6,1,0,0
161,1,1.6535,1,P6,1,0,0
162,1,0.9061,1,P6,0,0,0
163,1,0.8306,1,P6,0,0,0
164,1,0.8833,1,P6,0,0,0
165,1,0.9278,1,P6,0,0,0
166,1,1.1164,1,P6,1,0,0
167,1,1.697,1,P6,1,0,0
168,1,1.3095,1,P6,0,0,0
169,1,0.9221,1,P6,0,0,0
170,1,1.1106,1,P6,1,0,0
171,1,1.6752,1,P6,1,0,0
172,1,1.4318,1,P6,1,0,0
173,1,0.8051,1,P6,0,0,0
174,1,1.4417,1,P6,1,0,0
175,1,0.9022,1,P6,0,0,0
176,1,0.7468,1,P6,0,0,0
177,1,1.5593,1,P6,1,0,0
178,1,0.8199,1,P6,0,0,0
179,1,1.0245,1,P6,1,0,0
180,1,1.125,1,P6,1,0,0
181,1,0.7857,1,P6,0,0,0
182,1,1.0302,1,P6,1,0,0
183,1,1.3948,1,P6,1,0,0
184,1,1.3993,1,P6,0,0,0
185,1,1.3399,1,P6,1,0,0
187,1,1.3626,1,P6,1,0,0
189,1,0.6765,1,P6,0,0,0
190,1,0.905,1,P6,1,0,0
191,1,1.5015,1,P6,1,0,0
192,1,0.7782,1,P6,0,0,0
193,1,1.4147,1,P6,1,0,0
194,1,1.3793,1,P6,0,0,0
195,1,1.5998,1,P6,1,0,0
196,1,0.9644,1,P6,0,0,0
197,1,0.745,1,P6,0,0,0
198,1,0.8615,1,P6,0,0,0
199,1,0.9461,1,P6,0,0,0
200,1,1.3667,1,P6,1,0,0
201,1,1.4273,1,P6,1,0,0
202,1,0.8879,1,P6,0,0,0
203,1,0.6844,1,P6,0,0,0
204,1,1.201,1,P6,1,0,0
205,1,0.9582,1,P6,0,0,0
206,1,1.4268,1,P6,1,0,0
207,1,1.472,1,P6,1,0,0
208,1,0.8206,1,P6,0,0,0
209,1,1.4419,1,P6,1,0,0
211,1,1.115,1,P6,0,0,0
212,1,0.8476,1,P6,0,0,0
213,1,0.6841,1,P6,0,0,0
214,1,1.3127,1,P6,1,0,0
215,1,1.5013,1,P6,1,0,0
216,1,1.0179,1,P6,0,0,0
217,1,0.8465,1,P6,0,0,0
218,1,0.883,1,P6,0,0,0
219,1,1.5356,1,P6,1,0,0
220,1,1.1562,1,P6,1,0,0
221,1,0.9367,1,P6,0,0,0
222,1,1.2453,1,P6,1,0,0
223,1,1.6498,1,P6,1,0,0
224,1,1.1264,1,P6,1,0,0
225,1,0.899,1,P6,0,0,0
226,1,1.0636,1,P6,0,0,0
227,1,0.8282,1,P6,0,0,0
228,1,0.8007,1,P6,0,0,0
229,1,1.3733,1,P6,1,0,0
230,1,0.6818,1,P6,0,0,0
231,1,0.8384,1,P6,0,0,0
232,1,0.6831,1,P6,0,0,0
233,1,0.9916,1,P6,1,0,0
234,1,0.8442,1,P6,0,0,0
235,1,0.8727,1,P6,0,0,0
236,1,1.0773,1,P6,1,0,0
237,1,0.5939,1,P6,0,0,0
238,1,0.7504,1,P6,0,0,0
239,1,1.179,1,P6,1,0,0
240,1,1.1195,1,P6,1,0,0
241,1,1.1081,1,P6,1,0,0
242,1,0.8568,1,P6,0,0,0
243,1,0.7333,1,P6,0,0,0
244,1,1.0979,1,P6,1,0,0
245,1,1.1181,1,P6,1,0,0
248,1,1.3827,1,P6,1,0,0
249,1,0.8272,1,P6,0,0,0
251,1,0.8923,1,P6,0,0,0
252,1,0.7529,1,P6,0,0,0
253,1,0.7736,1,P6,0,0,0
254,1,0.6261,1,P6,0,0,0
255,1,1.2547,1,P6,1,0,0
256,1,0.8432,1,P6,0,0,0
257,1,1.5038,1,P6,1,0,0
258,1,1.0124,1,P6,1,0,0
259,1,1.4009,1,P6,1,0,0
260,1,1.1335,1,P6,1,0,0
261,1,1.354,1,P6,1,0,0
262,1,1.1747,1,P6,1,0,0
263,1,0.9313,1,P6,0,0,0
264,1,0.8478,1,P6,0,0,0
265,1,0.9564,1,P6,0,0,0
266,1,1.2409,1,P6,1,0,0
267,1,1.2855,1,P6,1,0,0
268,1,0.8901,1,P6,0,0,0
269,1,1.6866,1,P6,0,0,0
270,1,0.7632,1,P6,0,0,0
271,1,0.7038,1,P6,0,0,0
272,1,0.7084,1,P6,0,0,0
273,1,0.969,1,P6,1,0,0
274,1,1.0375,1,P6,0,0,0
275,1,0.8981,1,P6,0,0,0
276,1,1.7426,1,P6,1,0,0
277,1,0.7872,1,P6,0,0,0
278,1,1.1758,1,P6,1,0,0
279,1,0.8683,1,P6,0,0,0
280,1,1.057,1,P6,0,0,0
281,1,0.7815,1,P6,0,0,0
282,1,0.5381,1,P6,0,0,0
283,1,1.1347,1,P6,1,0,0
284,1,0.7392,1,P6,0,0,0
285,1,1.1438,1,P6,1,0,0
286,1,1.6923,1,P6,1,0,0
287,1,0.8649,1,P6,0,0,0
289,1,1.7068,1,P6,0,0,0
290,1,1.3913,1,P6,1,0,0
291,1,0.7799,1,P6,0,0,0
293,1,1.141,1,P6,0,0,0
294,1,1.4176,1,P6,1,0,0
295,1,1.5821,1,P6,1,0,0
296,1,1.0588,1,P6,0,0,0
297,1,0.9034,1,P6,0,0,0
298,1,0.8679,1,P6,0,0,0
300,1,1.445,1,P6,0,0,0
301,1,0.8336,1,P6,0,0,0
302,1,0.8382,1,P6,0,0,0
303,1,1.4427,1,P6,1,0,0
304,1,0.7913,1,P6,1,0,0
305,1,0.8838,1,P6,1,0,0
2,1,1.5842,1,P7,0,0,1
3,1,1.7248,1,P7,1,0,0
4,1,1.594,1,P7,0,0,0
5,1,1.1272,1,P7,0,0,0
9,1,1.5236,1,P7,1,0,0
12,1,1.7293,1,P7,1,0,0
16,1,1.4443,1,P7,0,0,0
23,1,1.5723,1,P7,1,0,0
25,1,1.5338,1,P7,0,0,0
26,1,1.4113,1,P7,0,0,0
27,1,1.6159,1,P7,1,0,0
28,1,1.1885,1,P7,1,0,0
29,1,1.6411,1,P7,0,0,0
34,1,1.5599,1,P7,0,0,0
36,1,1.2171,1,P7,0,0,0
40,1,1.0512,1,P7,0,0,0
42,1,1.0364,1,P7,0,0,0
45,1,1.4821,1,P7,0,0,0
46,1,1.6553,1,P7,0,0,0
49,1,1.597,1,P7,1,0,0
52,1,1.2907,1,P7,1,0,0
54,1,1.4359,1,P7,0,0,0
56,1,1.597,1,P7,1,0,0
57,1,1.2176,1,P7,0,0,0
58,1,1.4141,1,P7,1,0,0
59,1,1.1704,1,P7,0,0,0
60,1,1.4559,1,P7,0,0,0
61,1,1.1005,1,P7,0,0,0
62,1,1.4891,1,P7,0,0,0
63,1,1.2296,1,P7,1,0,0
64,1,1.2582,1,P7,0,0,0
65,1,1.5108,1,P7,1,0,0
68,1,1.1519,1,P7,1,0,0
69,1,1.3166,1,P7,1,0,0
71,1,1.6457,1,P7,0,0,0
72,1,1.6103,1,P7,0,0,0
73,1,0.8788,1,P7,0,0,0
74,1,1.0917,1,P7,1,0,0
75,1,1.1133,1,P7,1,0,0
76,1,1.5818,1,P7,0,0,0
78,1,1.5269,1,P7,0,0,0
79,1,1.6195,1,P7,0,0,0
80,1,1.1121,1,P7,0,0,0
81,1,1.4607,1,P7,1,0,0
82,1,1.2172,1,P7,0,0,0
83,1,1.1338,1,P7,0,0,0
87,1,1.1687,1,P7,0,0,0
88,1,1.5973,1,P7,0,0,0
90,1,1.0951,1,P7,0,0,0
97,1,1.4948,1,P7,0,0,0
98,1,1.1723,1,P7,1,0,0
99,1,0.9049,1,P7,0,0,0
100,1,0.9735,1,P7,0,0,0
101,1,0.9381,1,P7,0,0,0
102,1,1.1746,1,P7,1,0,0
106,1,1.3689,1,P7,0,0,0
109,1,0.9426,1,P7,0,0,0
110,1,1.1632,1,P7,0,0,0
111,1,1.0078,1,P7,1,0,0
114,1,1.5341,1,P7,1,0,0
115,1,1.4346,1,P7,1,0,0
116,1,1.6792,1,P7,1,0,0
117,1,1.3158,1,P7,1,0,0
118,1,1.6724,1,P7,1,0,0
119,1,1.301,1,P7,1,0,0
122,1,1.4353,1,P7,0,0,0
123,1,1.1279,1,P7,0,0,0
124,1,1.1725,1,P7,0,0,0
125,1,1.0571,1,P7,0,0,0
127,1,1.2657,1,P7,0,0,0
128,1,0.9823,1,P7,0,0,0
129,1,1.3229,1,P7,0,0,0
132,1,1.4413,1,P7,0,0,0
133,1,0.9898,1,P7,0,0,0
135,1,1.5669,1,P7,1,0,0
136,1,1.0595,1,P7,0,0,0
139,1,1.2252,1,P7,0,0,0
140,1,1.3018,1,P7,1,0,0
141,1,1.6103,1,P7,0,0,0
142,1,1.1189,1,P7,0,0,0
144,1,1.368,1,P7,1,0,0
145,1,1.2933,1,P7,1,0,0
146,1,1.0018,1,P7,1,0,0
147,1,1.1744,1,P7,1,0,0
150,1,1.0855,1,P7,0,0,0
151,1,1.6581,1,P7,1,0,0
152,1,1.7186,1,P7,1,0,0
153,1,1.3872,1,P7,0,0,0
154,1,1.2558,1,P7,1,0,0
155,1,1.1164,1,P7,0,0,0
156,1,1.2969,1,P7,1,0,0
157,1,1.1815,1,P7,0,0,0
158,1,1.45,1,P7,0,0,0
162,1,1.7243,1,P7,0,0,0
163,1,1.7288,1,P7,0,0,0
164,1,1.1814,1,P7,0,0,0
165,1,1.482,1,P7,0,0,0
166,1,1.4312,1,P7,1,0,0
167,1,0.9398,1,P7,1,0,0
168,1,0.9764,1,P7,0,0,0
169,1,1.133,1,P7,0,0,0
170,1,1.0335,1,P7,1,0,0
173,1,0.9672,1,P7,0,0,0
174,1,1.4678,1,P7,1,0,0
175,1,1.1443,1,P7,0,0,0
176,1,1.1089,1,P7,0,0,0
177,1,1.0015,1,P7,1,0,0
178,1,1.39,1,P7,0,0,0
180,1,1.4791,1,P7,1,0,0
181,1,1.5478,1,P7,0,0,0
182,1,1.5443,1,P7,1,0,0
183,1,1.573,1,P7,1,0,0
184,1,1.6656,1,P7,0,0,0
185,1,1.6541,1,P7,1,0,0
187,1,1.2816,0,P7,1,0,0
188,1,1.5902,1,P7,1,0,0
189,1,1.3788,1,P7,0,0,0
190,1,0.9433,1,P7,1,0,0
191,1,1.1559,1,P7,1,0,0
192,1,1.3124,1,P7,0,0,0
193,1,1.149,1,P7,1,0,0
194,1,0.9536,1,P7,0,0,0
196,1,1.5147,1,P7,0,0,0
197,1,1.2713,1,P7,0,0,0
198,1,1.0358,1,P7,0,0,0
199,1,1.0965,1,P7,0,0,0
200,1,1.7011,1,P7,1,0,0
203,1,1.1068,1,P7,0,0,0
204,1,1.1833,1,P7,1,0,0
205,1,1.6679,1,P7,0,0,0
206,1,1.6332,1,P7,1,0,0
208,1,1.1476,1,P7,0,0,0
209,1,1.4402,1,P7,1,0,0
210,1,1.4447,1,P7,1,0,0
211,1,1.0893,1,P7,0,0,0
212,1,1.1819,1,P7,0,0,0
213,1,1.2424,1,P7,0,0,0
214,1,1.159,1,P7,1,0,0
216,1,1.1921,1,P7,0,0,0
217,1,1.3167,1,P7,0,0,0
218,1,0.9772,1,P7,0,0,0
219,1,1.6539,1,P7,1,0,0
220,1,1.0425,1,P7,1,0,0
221,1,1.095,1,P7,0,0,0
225,1,1.6173,1,P7,0,0,0
226,1,1.0779,1,P7,0,0,0
227,1,1.0744,1,P7,0,0,0
228,1,1.295,1,P7,0,0,0
229,1,1.3076,0,P7,1,0,0
230,1,1.1678,1,P7,0,0,0
231,1,1.1654,1,P7,0,0,0
233,1,1.1905,1,P7,1,0,0
234,1,0.9791,1,P7,0,0,0
235,1,1.5597,1,P7,0,0,0
238,1,1.5493,1,P7,0,0,0
241,1,1.4834,1,P7,1,0,0
242,1,1.585,1,P7,0,0,0
243,1,1.1736,1,P7,0,0,0
244,1,1.4661,1,P7,1,0,0
245,1,1.6387,1,P7,1,0,0
248,1,1.205,1,P7,1,0,0
249,1,0.8426,1,P7,0,0,0
250,1,1.1991,1,P7,1,0,0
251,1,1.0677,1,P7,0,0,0
252,1,1.0163,1,P7,0,0,0
253,1,1.1648,1,P7,0,0,0
254,1,0.9774,1,P7,0,0,0
255,1,1.302,1,P7,1,0,0
256,1,1.4345,1,P7,0,0,0
258,1,1.4437,1,P7,1,0,0
259,1,1.7122,1,P7,1,0,0
260,1,1.2689,1,P7,1,0,0
261,1,1.0015,1,P7,1,0,0
262,1,1.294,1,P7,1,0,0
263,1,1.1786,1,P7,0,0,0
264,1,1.0231,1,P7,0,0,0
265,1,0.8997,1,P7,0,0,0
266,1,1.4803,1,P7,1,0,0
269,1,1.03,1,P7,0,0,0
270,1,1.2345,1,P7,0,0,0
271,1,1.7351,1,P7,0,0,0
272,1,1.3077,1,P7,0,0,0
274,1,1.5088,1,P7,0,0,0
275,1,1.5374,1,P7,0,0,0
277,1,1.7065,1,P7,0,0,0
278,1,1.2871,1,P7,1,0,0
279,1,1.3716,1,P7,0,0,0
280,1,1.6962,1,P7,0,0,0
281,1,1.2287,1,P7,0,0,0
282,1,1.353,1,P7,0,0,0
283,1,1.2306,1,P7,1,0,0
284,1,1.2031,0,P7,0,0,0
289,1,1.4661,1,P7,0,0,0
291,1,1.1152,1,P7,0,0,0
292,1,1.3198,1,P7,0,0,0
293,1,1.5163,1,P7,0,0,0
298,1,1.3151,1,P7,0,0,0
300,1,1.365,1,P7,0,0,0
301,1,1.2735,1,P7,0,0,0
302,1,1.2148,1,P7,0,0,0
303,1,1.412,1,P7,1,0,0
1,1,1.1809,1,P8,0,0,1
2,1,1.1356,1,P8,1,0,0
3,1,0.73244,1,P8,1,0,0
4,1,0.62792,1,P8,0,0,0
5,1,0.68678,1,P8,1,0,0
6,1,0.74812,1,P8,1,0,0
7,1,1.101,1,P8,0,0,0
8,1,0.72376,1,P8,1,0,0
9,1,0.81301,1,P8,1,0,0
10,1,0.8501,0,P8,1,0,0
11,1,1.6567,1,P8,0,0,0
12,1,1.0814,1,P8,0,0,0
13,1,0.83454,1,P8,0,0,0
14,1,0.92754,1,P8,1,0,0
15,1,1.6606,0,P8,1,0,0
16,1,0.78557,1,P8,0,0,0
17,1,0.72436,1,P8,1,0,0
18,1,1.0514,1,P8,1,0,0
21,2,0.9043,1,P8,0,0,1
22,2,0.73135,1,P8,1,0,0
23,2,1.0001,1,P8,1,0,0
24,2,0.95136,1,P8,0,0,0
25,2,1.1066,1,P8,1,0,0
26,2,0.90383,1,P8,1,0,0
27,2,1.1046,1,P8,0,0,0
28,2,0.79134,1,P8,1,0,0
29,2,0.81673,1,P8,1,0,0
30,2,1.326,1,P8,1,0,0
31,2,1.1964,1,P8,0,0,0
32,2,0.83722,1,P8,0,0,0
33,2,0.87035,1,P8,0,0,0
34,2,1.1792,1,P8,1,0,0
36,2,0.71724,1,P8,0,0,0
37,2,0.93594,1,P8,1,0,0
38,2,0.83913,1,P8,1,0,0
39,2,1.3519,1,P8,0,0,0
40,2,1.6531,1,P8,0,0,0
41,2,0.73801,1,P8,1,0,0
42,2,0.88612,1,P8,1,0,0
43,2,0.80728,1,P8,0,0,0
44,2,1.166,1,P8,1,0,0
45,2,0.86735,1,P8,1,0,0
47,2,0.82148,1,P8,0,0,0
48,2,1.005,1,P8,0,0,0
49,2,1.1722,1,P8,1,0,0
50,2,0.97691,1,P8,1,0,0
51,2,0.97813,1,P8,0,0,0
52,2,1.1994,1,P8,1,0,0
53,2,1.7427,1,P8,0,0,0
54,2,1.0313,1,P8,1,0,0
55,2,0.72827,1,P8,0,0,0
56,2,1.255,0,P8,0,0,0
59,2,1.116,1,P8,0,0,0
60,2,1.5972,1,P8,0,0,0
61,2,1.3899,1,P8,0,0,0
62,2,1.6169,1,P8,1,0,0
63,2,1.442,1,P8,1,0,0
64,2,0.6633,0,P8,1,0,0
65,2,1.4963,1,P8,0,0,0
66,2,0.76706,1,P8,0,0,0
67,2,1.1423,1,P8,1,0,0
68,2,1.4815,1,P8,1,0,0
69,2,1.1987,1,P8,0,0,0
70,2,1.02,1,P8,0,0,0
71,2,0.62745,1,P8,0,0,0
72,2,1.3226,1,P8,1,0,0
73,2,0.73561,1,P8,0,0,0
75,2,0.99121,1,P8,0,0,0
76,2,1.2541,1,P8,1,0,0
77,2,1.3693,1,P8,1,0,0
78,2,1.2727,1,P8,0,0,0
79,2,1.6198,1,P8,1,0,0
80,2,1.2768,1,P8,0,0,0
81,2,1.2342,1,P8,0,0,0
82,2,0.54319,1,P8,0,0,0
83,2,1.0338,1,P8,1,0,0
84,2,0.70483,1,P8,1,0,0
85,3,1.2459,1,P8,0,0,1
86,3,0.67279,1,P8,0,0,0
87,3,0.77982,1,P8,0,0,0
88,3,0.72671,1,P8,1,0,0
89,3,0.72574,1,P8,1,0,0
90,3,0.66234,1,P8,0,0,0
91,3,0.77733,1,P8,1,0,0
92,3,0.90636,1,P8,0,0,0
93,3,0.90116,1,P8,0,0,0
94,3,0.91659,1,P8,0,0,0
95,3,1.4151,1,P8,1,0,0
96,3,1.2939,0,P8,1,0,0
98,3,0.72372,1,P8,0,0,0
99,3,1.2825,1,P8,0,0,0
100,3,1.4672,1,P8,1,0,0
102,3,0.87276,1,P8,1,0,0
103,3,1.1697,1,P8,0,0,0
104,3,0.90865,1,P8,1,0,0
105,3,1.3974,1,P8,1,0,0
106,3,1.5223,1,P8,1,0,0
107,3,1.3296,1,P8,0,0,0
109,3,1.724,1,P8,1,0,0
111,3,0.89207,1,P8,0,0,0
114,3,1.2653,1,P8,1,0,0
115,3,1.0927,0,P8,1,0,0
117,3,1.0986,1,P8,0,0,0
118,3,1.0676,1,P8,0,0,0
120,3,1.6539,1,P8,1,0,0
121,3,1.7051,0,P8,1,0,0
124,3,1.2148,1,P8,1,0,0
125,3,1.0577,1,P8,0,0,0
127,3,0.98332,1,P8,0,0,0
133,3,1.1769,1,P8,0,0,0
135,3,1.2589,1,P8,0,0,0
136,3,1.5041,1,P8,1,0,0
137,3,1.3409,1,P8,0,0,0
138,3,1.6537,1,P8,0,0,0
141,3,0.8807,1,P8,0,0,0
142,3,1.5277,0,P8,1,0,0
145,3,1.0162,0,P8,1,0,0
147,3,1.1065,1,P8,0,0,0
148,3,1.2512,1,P8,1,0,0
149,4,0.99905,1,P8,0,0,1
150,4,1.1301,1,P8,1,0,0
151,4,0.57927,1,P8,0,0,0
153,4,1.1637,1,P8,1,0,0
154,4,1.3609,0,P8,1,0,0
155,4,0.86561,1,P8,0,0,0
156,4,1.2489,1,P8,0,0,0
157,4,1.0678,1,P8,0,0,0
158,4,1.4671,1,P8,1,0,0
159,4,0.84584,1,P8,0,0,0
160,4,1.0931,1,P8,1,0,0
161,4,1.2037,1,P8,1,0,0
162,4,0.95462,1,P8,0,0,0
164,4,0.94889,1,P8,0,0,0
165,4,0.98171,1,P8,1,0,0
167,4,0.70989,1,P8,0,0,0
168,4,1.369,1,P8,1,0,0
169,4,1.4916,1,P8,1,0,0
170,4,1.1509,1,P8,0,0,0
171,4,0.89376,1,P8,1,0,0
172,4,1.3883,1,P8,1,0,0
173,4,0.83746,1,P8,1,0,0
175,4,1.7458,1,P8,1,0,0
182,4,1.2151,1,P8,1,0,0
184,4,0.6491,1,P8,0,0,0
186,4,1.1494,1,P8,1,0,0
187,4,1.0104,1,P8,0,0,0
188,4,0.65344,1,P8,0,0,0
189,4,0.75024,0,P8,1,0,0
190,4,0.79089,0,P8,1,0,0
191,4,1.7102,1,P8,0,0,0
192,4,0.80521,1,P8,0,0,0
193,4,0.94656,1,P8,0,0,0
194,4,1.1811,0,P8,1,0,0
196,4,1.3253,1,P8,1,0,0
197,4,1.2246,1,P8,0,0,0
198,4,0.81943,1,P8,0,0,0
199,4,0.90243,1,P8,0,0,0
200,4,1.4514,0,P8,1,0,0
1,1,1.1035,1,P8,0,0,1
2,1,0.97835,1,P8,1,0,0
3,1,1.3171,1,P8,1,0,0
4,1,1.3705,1,P8,0,0,0
5,1,0.79768,1,P8,0,0,0
6,1,0.76482,1,P8,1,0,0
7,1,0.75626,1,P8,1,0,0
8,1,0.66296,1,P8,1,0,0
9,1,0.79598,1,P8,0,0,0
10,1,1.0652,1,P8,1,0,0
11,1,1.0702,1,P8,1,0,0
12,1,0.87341,1,P8,0,0,0
13,1,0.68048,1,P8,0,0,0
14,1,0.57939,1,P8,0,0,0
15,1,0.94467,1,P8,1,0,0
16,1,1.332,1,P8,0,0,0
17,1,0.47875,1,P8,0,0,0
18,1,1.2637,1,P8,1,0,0
19,1,1.0383,1,P8,1,0,0
20,1,1.2975,0,P8,1,0,0
21,1,0.85834,1,P8,0,0,0
22,1,1.1772,1,P8,0,0,0
23,1,1.0021,1,P8,1,0,0
24,1,0.74124,1,P8,0,0,0
25,1,0.80454,1,P8,0,0,0
26,1,1.4411,1,P8,0,0,0
27,1,1.1422,1,P8,1,0,0
28,1,1.0127,1,P8,1,0,0
29,1,0.7814,1,P8,0,0,0
30,1,1.164,1,P8,0,0,0
31,1,1.6676,1,P8,1,0,0
33,1,1.2539,1,P8,1,0,0
34,1,1.2331,1,P8,0,0,0
35,1,1.6725,1,P8,1,0,0
36,1,1.4077,1,P8,1,0,0
37,1,0.91066,1,P8,0,0,0
38,1,0.78183,1,P8,0,0,0
39,1,1.0223,1,P8,1,0,0
40,1,0.92379,1,P8,0,0,0
41,1,0.66627,1,P8,0,0,0
42,1,1.0294,1,P8,0,0,0
43,1,1.4061,1,P8,1,0,0
44,1,1.0608,1,P8,0,0,0
45,1,0.89767,1,P8,0,0,0
46,1,1.3464,1,P8,1,0,0
48,1,0.79228,1,P8,0,0,0
49,1,0.95737,1,P8,0,0,0
50,1,1.5224,1,P8,1,0,0
51,1,1.0176,1,P8,0,0,0
52,2,0.96912,1,P8,0,0,1
53,2,0.84814,1,P8,1,0,0
54,2,1.1332,1,P8,1,0,0
55,2,0.89363,1,P8,1,0,0
56,2,1.069,1,P8,0,0,0
57,2,0.79438,1,P8,1,0,0
58,2,0.52766,1,P8,0,0,0
59,2,1.0225,1,P8,0,0,0
60,2,0.74955,1,P8,0,0,0
61,2,1.4488,1,P8,1,0,0
62,2,0.89746,1,P8,1,0,0
63,2,1.0443,1,P8,1,0,0
64,2,0.73291,1,P8,0,0,0
65,2,0.9141,1,P8,0,0,0
66,2,1.0529,1,P8,1,0,0
67,2,1.1164,1,P8,0,0,0
68,2,1.0438,1,P8,0,0,0
69,2,1.2506,1,P8,1,0,0
70,2,1.2259,1,P8,1,0,0
71,2,0.99269,1,P8,1,0,0
72,2,0.57516,1,P8,0,0,0
73,2,1.666,1,P8,1,0,0
75,2,1.072,1,P8,1,0,0
76,2,1.2468,1,P8,0,0,0
77,2,1.21,1,P8,0,0,0
78,2,1.2568,1,P8,0,0,0
79,2,1.4916,1,P8,1,0,0
80,2,1.5986,1,P8,1,0,0
81,2,1.5718,1,P8,1,0,0
82,2,1.4424,1,P8,0,0,0
83,2,1.3977,1,P8,1,0,0
84,2,1.2225,1,P8,1,0,0
87,2,1.5696,1,P8,1,0,0
88,2,1.5762,1,P8,0,0,0
89,2,1.1676,1,P8,1,0,0
92,2,1.309,1,P8,0,0,0
93,2,1.2459,1,P8,0,0,0
94,2,1.2772,1,P8,0,0,0
95,2,1.4186,1,P8,1,0,0
96,2,1.3274,1,P8,1,0,0
97,2,1.264,1,P8,0,0,0
98,2,1.4568,1,P8,0,0,0
99,2,1.1678,1,P8,0,0,0
101,2,1.6142,1,P8,1,0,0
102,2,1.4073,1,P8,0,0,0
103,2,1.3986,1,P8,0,0,0
104,2,1.5815,1,P8,1,0,0
108,2,1.3153,1,P8,0,0,0
109,2,1.4741,1,P8,0,0,0
110,2,1.3072,1,P8,0,0,0
111,2,1.0924,1,P8,1,0,0
112,2,1.065,1,P8,0,0,0
113,2,1.2981,1,P8,1,0,0
114,2,1.5205,1,P8,1,0,0
115,2,1.4494,1,P8,0,0,0
2,1,1.0583,1,P9,1,0,1
3,1,0.9591,1,P9,1,0,0
4,1,0.93454,1,P9,0,0,0
5,1,1.1776,1,P9,1,0,0
6,1,0.88689,1,P9,1,0,0
7,1,0.9995,1,P9,0,0,0
8,1,0.93448,1,P9,1,0,0
9,1,1.2876,1,P9,1,0,0
10,1,1.0528,1,P9,1,0,0
11,1,0.6994,1,P9,0,0,0
12,1,0.71618,1,P9,0,0,0
13,1,0.75719,1,P9,0,0,0
14,1,0.93029,1,P9,1,0,0
15,1,1.1434,1,P9,1,0,0
16,1,0.77217,1,P9,0,0,0
17,1,0.83097,1,P9,1,0,0
18,1,0.8461,1,P9,1,0,0
19,1,0.65499,1,P9,0,0,0
20,1,0.79598,1,P9,0,0,0
21,1,0.72884,1,P9,1,0,0
22,1,1.0135,1,P9,1,0,0
23,1,0.68669,1,P9,0,0,0
24,1,0.82986,1,P9,1,0,0
25,1,1.3151,1,P9,1,0,0
26,1,0.77036,1,P9,0,0,0
27,1,0.72523,1,P9,0,0,0
28,1,0.57242,1,P9,0,0,0
29,1,1.0919,1,P9,1,0,0
30,1,0.96076,1,P9,1,0,0
31,1,0.72178,1,P9,0,0,0
32,1,1.0071,1,P9,1,0,0
33,1,0.59057,1,P9,0,0,0
34,1,0.8791,1,P9,1,0,0
35,1,0.94396,1,P9,0,0,0
36,1,0.89476,1,P9,0,0,0
37,1,1.3257,1,P9,1,0,0
38,1,0.83053,1,P9,1,0,0
39,1,0.71567,1,P9,0,0,0
40,1,0.93272,1,P9,0,0,0
41,1,0.70964,1,P9,0,0,0
42,1,0.83273,1,P9,1,0,0
43,1,0.98562,1,P9,1,0,0
44,1,0.91111,1,P9,1,0,0
45,1,0.616,1,P9,0,0,0
46,1,0.69481,1,P9,0,0,0
47,1,1.0539,1,P9,1,0,0
48,1,0.93707,1,P9,1,0,0
49,1,0.66243,1,P9,0,0,0
50,1,0.65158,1,P9,0,0,0
51,1,0.72302,1,P9,0,0,0
52,1,0.77028,1,P9,1,0,0
53,1,0.69536,1,P9,0,0,0
54,1,0.81001,1,P9,0,0,0
55,1,0.63089,1,P9,0,0,0
56,1,1.0379,1,P9,1,0,0
57,1,1.2249,1,P9,1,0,0
58,1,0.61645,1,P9,0,0,0
59,1,0.91557,1,P9,1,0,0
60,1,0.82856,1,P9,0,0,0
61,1,0.76975,1,P9,0,0,0
62,1,0.72665,1,P9,0,0,0
63,1,0.97753,1,P9,1,0,0
64,1,0.84857,1,P9,1,0,0
65,2,0.97138,1,P9,0,0,1
66,2,0.62232,1,P9,0,0,0
67,2,0.75333,1,P9,0,0,0
68,2,0.94022,1,P9,1,0,0
69,2,0.87523,1,P9,1,0,0
70,2,0.71591,1,P9,0,0,0
71,2,0.83882,1,P9,1,0,0
72,2,1.0237,1,P9,0,0,0
73,2,0.65069,1,P9,0,0,0
74,2,0.58597,1,P9,0,0,0
75,2,1.0608,1,P9,1,0,0
76,2,0.8915,1,P9,1,0,0
77,2,0.73618,1,P9,1,0,0
78,2,0.72924,1,P9,0,0,0
79,2,0.65597,1,P9,0,0,0
80,2,0.72855,1,P9,1,0,0
81,2,0.86366,1,P9,1,0,0
82,2,1.1424,1,P9,1,0,0
83,2,0.6313,1,P9,0,0,0
84,2,0.9463,1,P9,1,0,0
85,2,0.97084,1,P9,1,0,0
86,2,1.3517,1,P9,1,0,0
87,2,1.5671,1,P9,0,0,0
88,2,1.1623,1,P9,1,0,0
89,2,1.2096,1,P9,1,0,0
103,2,0.69131,1,P9,0,0,0
104,2,0.74044,1,P9,1,0,0
105,2,0.7032,1,P9,0,0,0
106,2,0.67014,1,P9,0,0,0
107,2,0.60472,1,P9,0,0,0
108,2,1.0295,1,P9,1,0,0
109,2,0.88403,1,P9,0,0,0
110,2,0.72517,1,P9,1,0,0
111,2,1.0058,1,P9,1,0,0
112,2,0.77905,1,P9,1,0,0
113,2,0.66227,1,P9,0,0,0
114,2,0.66183,1,P9,0,0,0
115,2,0.75252,1,P9,0,0,0
116,2,0.73358,1,P9,1,0,0
117,2,0.64257,1,P9,0,0,0
118,2,0.74718,1,P9,0,0,0
119,2,0.81428,1,P9,1,0,0
120,2,0.90522,1,P9,1,0,0
121,2,0.91004,1,P9,0,0,0
122,2,1.1011,1,P9,1,0,0
123,2,0.78027,1,P9,0,0,0
124,2,0.82888,1,P9,0,0,0
125,2,0.95804,1,P9,1,0,0
126,2,0.89916,1,P9,0,0,0
127,2,0.82394,1,P9,0,0,0
128,2,0.79282,1,P9,1,0,0
129,3,1.0375,1,P9,0,0,1
130,3,0.64875,1,P9,1,0,0
131,3,0.61775,1,P9,0,0,0
132,3,0.56101,1,P9,0,0,0
133,3,1.0183,1,P9,1,0,0
134,3,0.73551,1,P9,1,0,0
135,3,0.70401,1,P9,0,0,0
136,3,0.65557,1,P9,0,0,0
137,3,0.62628,1,P9,0,0,0
138,3,0.88963,1,P9,1,0,0
139,3,0.80445,1,P9,0,0,0
140,3,0.69963,1,P9,1,0,0
141,3,0.93035,1,P9,1,0,0
142,3,0.76892,1,P9,0,0,0
143,3,0.72619,1,P9,1,0,0
144,3,0.65141,1,P9,0,0,0
145,3,0.71609,0,P9,1,0,0
147,3,0.67624,1,P9,0,0,0
148,3,1.0712,1,P9,1,0,0
149,3,0.91431,1,P9,1,0,0
150,3,0.66923,1,P9,0,0,0
151,3,0.72434,1,P9,1,0,0
152,3,0.89876,1,P9,1,0,0
153,3,0.73998,1,P9,1,0,0
154,3,0.77693,1,P9,0,0,0
155,3,0.80028,1,P9,1,0,0
156,3,0.87489,1,P9,1,0,0
157,3,0.6697,1,P9,0,0,0
158,3,0.5387,1,P9,0,0,0
159,3,0.64774,1,P9,0,0,0
160,3,1.0702,1,P9,1,0,0
161,3,0.86295,1,P9,1,0,0
162,3,0.9655,1,P9,1,0,0
163,3,0.7448,1,P9,0,0,0
164,3,0.6876,1,P9,0,0,0
165,3,1.0107,1,P9,1,0,0
166,3,0.42783,0,P9,1,0,0
167,3,0.64082,1,P9,0,0,0
168,3,0.62793,1,P9,0,0,0
169,3,0.87678,1,P9,1,0,0
170,3,1.6373,1,P9,1,0,0
171,3,0.98865,1,P9,0,0,0
172,3,0.61974,1,P9,0,0,0
173,3,1.2728,1,P9,0,0,0
174,3,0.73177,1,P9,1,0,0
175,3,0.95259,1,P9,1,0,0
176,3,0.81971,1,P9,1,0,0
177,3,0.59895,1,P9,0,0,0
178,3,0.72165,1,P9,0,0,0
179,3,1.1969,1,P9,0,0,0
180,3,0.84987,1,P9,1,0,0
181,3,0.64468,1,P9,0,0,0
182,3,1.1093,1,P9,0,0,0
183,3,0.77015,1,P9,0,0,0
184,3,0.73676,1,P9,1,0,0
185,3,0.51617,1,P9,0,0,0
186,3,0.63313,1,P9,0,0,0
187,3,1.0226,1,P9,1,0,0
188,3,0.84379,1,P9,1,0,0
189,3,0.9025,1,P9,1,0,0
190,3,0.66524,1,P9,0,0,0
191,3,0.88401,1,P9,0,0,0
192,3,0.99137,1,P9,1,0,0
1,1,0.94819,1,P10,0,0,1
2,1,0.78297,1,P10,1,0,0
3,1,0.58777,1,P10,1,0,0
4,1,0.59516,1,P10,0,0,0
5,1,0.64643,1,P10,1,0,0
6,1,0.66774,1,P10,1,0,0
7,1,0.74833,1,P10,0,0,0
8,1,0.62737,1,P10,1,0,0
9,1,0.82038,1,P10,1,0,0
10,1,0.73749,1,P10,1,0,0
11,1,0.5923,1,P10,0,0,0
12,1,0.56892,1,P10,0,0,0
13,1,0.69004,1,P10,0,0,0
14,1,0.71105,1,P10,1,0,0
15,1,0.74026,1,P10,1,0,0
16,1,0.56898,1,P10,0,0,0
17,1,0.81182,1,P10,1,0,0
18,1,0.87473,1,P10,1,0,0
19,1,0.71593,1,P10,0,0,0
20,1,0.63286,1,P10,0,0,0
21,1,0.67785,1,P10,1,0,0
22,1,0.73066,1,P10,1,0,0
23,1,0.81167,1,P10,0,0,0
24,1,0.78665,1,P10,1,0,0
25,1,0.79981,1,P10,1,0,0
26,1,0.66316,1,P10,0,0,0
27,1,0.61003,1,P10,0,0,0
28,1,0.68143,1,P10,0,0,0
29,1,0.72074,1,P10,1,0,0
30,1,0.70146,1,P10,1,0,0
31,1,0.69485,1,P10,0,0,0
32,1,0.676,1,P10,1,0,0
33,1,0.67511,1,P10,0,0,0
34,1,0.71584,1,P10,1,0,0
35,1,0.70063,1,P10,0,0,0
36,1,0.61969,1,P10,0,0,0
37,1,0.7866,1,P10,1,0,0
38,1,0.77131,1,P10,1,0,0
39,1,0.78445,1,P10,0,0,0
40,1,0.63379,1,P10,0,0,0
41,1,0.59423,1,P10,0,0,0
42,1,0.8295,1,P10,1,0,0
43,1,0.80653,1,P10,1,0,0
44,1,0.73178,1,P10,1,0,0
45,1,0.61297,1,P10,0,0,0
46,1,0.60347,1,P10,0,0,0
47,1,0.76281,1,P10,1,0,0
48,1,0.806,1,P10,1,0,0
49,1,0.62735,1,P10,0,0,0
50,1,0.57659,1,P10,0,0,0
51,1,0.60786,1,P10,0,0,0
52,1,0.63106,1,P10,1,0,0
53,1,0.61189,1,P10,0,0,0
54,1,0.55874,1,P10,0,0,0
55,1,0.61972,1,P10,0,0,0
56,1,0.90664,1,P10,1,0,0
57,1,1.1017,1,P10,1,0,0
58,1,0.74115,1,P10,0,0,0
59,1,0.84836,1,P10,1,0,0
60,1,0.60942,1,P10,0,0,0
61,1,0.80673,1,P10,0,0,0
62,1,0.65959,1,P10,0,0,0
63,1,0.7744,1,P10,1,0,0
64,1,0.85321,1,P10,1,0,0
65,2,0.91927,1,P10,0,0,1
66,2,1.2579,1,P10,0,0,0
67,2,0.66926,1,P10,0,0,0
68,2,0.69597,1,P10,1,0,0
69,2,0.78297,1,P10,1,0,0
70,2,0.55985,1,P10,0,0,0
71,2,0.64268,1,P10,1,0,0
72,2,0.70763,1,P10,0,0,0
73,2,0.53445,1,P10,0,0,0
74,2,0.67773,1,P10,0,0,0
75,2,1.3045,1,P10,1,0,0
76,2,0.99126,1,P10,1,0,0
77,2,0.76408,1,P10,1,0,0
78,2,0.58111,1,P10,0,0,0
79,2,0.61187,1,P10,0,0,0
80,2,0.74844,1,P10,1,0,0
81,2,0.7236,1,P10,1,0,0
82,2,0.58613,1,P10,1,0,0
83,2,0.61116,1,P10,0,0,0
84,2,0.78199,0,P10,1,0,0
85,2,0.75856,1,P10,1,0,0
86,2,0.85145,1,P10,1,0,0
87,2,0.99486,1,P10,0,0,0
88,2,0.99813,1,P10,1,0,0
89,2,0.8054,1,P10,1,0,0
90,2,0.73664,1,P10,1,0,0
91,2,0.57326,1,P10,0,0,0
92,2,0.59246,1,P10,0,0,0
93,2,0.63996,1,P10,0,0,0
94,2,0.63482,1,P10,1,0,0
95,2,0.86173,1,P10,1,0,0
96,2,0.77323,1,P10,1,0,0
97,2,0.57196,1,P10,0,0,0
98,2,0.64491,1,P10,0,0,0
99,2,0.85592,1,P10,0,0,0
100,2,0.90342,1,P10,1,0,0
101,2,0.81839,1,P10,1,0,0
102,2,0.76983,1,P10,1,0,0
103,2,0.78313,1,P10,0,0,0
104,2,0.79211,1,P10,1,0,0
105,2,0.66678,1,P10,0,0,0
106,2,0.79406,1,P10,0,0,0
107,2,0.76064,1,P10,0,0,0
108,2,0.79346,1,P10,1,0,0
109,2,0.70405,1,P10,0,0,0
110,2,0.81715,1,P10,1,0,0
111,2,0.68176,1,P10,1,0,0
112,2,0.94311,1,P10,1,0,0
113,2,0.92214,1,P10,0,0,0
114,2,0.75337,1,P10,0,0,0
115,2,0.72415,1,P10,0,0,0
116,2,0.64953,1,P10,1,0,0
117,2,0.63841,1,P10,0,0,0
118,2,0.64705,1,P10,0,0,0
119,2,0.79394,1,P10,1,0,0
120,2,0.8369,1,P10,1,0,0
121,2,0.6339,1,P10,0,0,0
122,2,0.84882,1,P10,1,0,0
123,2,0.7761,1,P10,0,0,0
124,2,0.6487,1,P10,0,0,0
125,2,0.73763,1,P10,1,0,0
126,2,0.74305,1,P10,0,0,0
127,2,0.81189,1,P10,0,0,0
128,2,0.81239,1,P10,1,0,0
1,1,0.87428,1,P10,0,0,1
2,1,0.7664,1,P10,1,0,0
3,1,0.55951,1,P10,0,0,0
4,1,0.53477,1,P10,0,0,0
5,1,0.74411,1,P10,1,0,0
6,1,0.70118,0,P10,1,0,0
7,1,0.96578,1,P10,0,0,0
8,1,0.66123,1,P10,0,0,0
9,1,0.66391,1,P10,0,0,0
10,1,0.97535,1,P10,1,0,0
11,1,0.55413,1,P10,0,0,0
12,1,0.69741,1,P10,1,0,0
13,1,0.82425,1,P10,1,0,0
14,1,0.52668,1,P10,0,0,0
15,1,0.66001,1,P10,1,0,0
16,1,0.62524,1,P10,0,0,0
17,1,0.93007,1,P10,1,0,0
18,1,0.7533,1,P10,1,0,0
19,1,0.59402,1,P10,0,0,0
20,1,0.90901,1,P10,1,0,0
21,1,0.73581,1,P10,1,0,0
22,1,0.61913,1,P10,0,0,0
23,1,0.73808,1,P10,1,0,0
24,1,0.75271,1,P10,1,0,0
25,1,0.76175,0,P10,1,0,0
26,1,0.56661,1,P10,0,0,0
27,1,0.72601,1,P10,1,0,0
28,1,0.83278,1,P10,1,0,0
29,1,0.59564,1,P10,0,0,0
30,1,0.68051,1,P10,0,0,0
31,1,0.72537,1,P10,0,0,0
32,1,0.8041,1,P10,1,0,0
33,1,0.99681,1,P10,1,0,0
34,1,0.69936,1,P10,1,0,0
35,1,0.63044,1,P10,0,0,0
36,1,0.54145,1,P10,0,0,0
37,1,0.70465,1,P10,1,0,0
38,1,0.96966,1,P10,1,0,0
39,1,0.74269,1,P10,0,0,0
40,1,0.61784,1,P10,0,0,0
41,1,0.67461,1,P10,1,0,0
42,1,0.77109,1,P10,1,0,0
43,1,1.0504,1,P10,0,0,0
44,1,0.64951,1,P10,0,0,0
45,1,0.56685,1,P10,0,0,0
46,1,0.71362,1,P10,1,0,0
47,1,0.64658,1,P10,1,0,0
48,1,0.85761,1,P10,1,0,0
49,1,0.66088,1,P10,0,0,0
50,1,0.63153,1,P10,0,0,0
51,1,0.69877,1,P10,0,0,0
52,1,0.73546,1,P10,1,0,0
53,1,0.60234,1,P10,0,0,0
54,1,0.66701,1,P10,0,0,0
55,1,0.70413,1,P10,0,0,0
56,1,0.86267,1,P10,1,0,0
57,1,0.65786,1,P10,0,0,0
58,1,0.66308,1,P10,0,0,0
59,1,0.74836,1,P10,1,0,0
60,1,0.74557,1,P10,1,0,0
61,1,0.70031,1,P10,1,0,0
62,1,0.59915,1,P10,0,0,0
63,1,0.66595,1,P10,0,0,0
64,1,0.61306,1,P10,1,0,0
65,2,1.0413,1,P10,0,0,1
66,2,0.78832,1,P10,1,0,0
67,2,0.79914,1,P10,1,0,0
68,2,0.71622,1,P10,0,0,0
69,2,0.67144,1,P10,0,0,0
70,2,0.68667,1,P10,1,0,0
71,2,0.80615,1,P10,1,0,0
72,2,1.0568,1,P10,1,0,0
73,2,0.71777,1,P10,0,0,0
74,2,0.76301,1,P10,1,0,0
75,2,0.88004,1,P10,1,0,0
76,2,0.70713,1,P10,0,0,0
77,2,0.65834,1,P10,0,0,0
78,2,0.58117,1,P10,0,0,0
79,2,0.92235,1,P10,1,0,0
80,2,0.70174,1,P10,0,0,0
81,2,0.76839,1,P10,0,0,0
82,2,0.72152,1,P10,1,0,0
83,2,0.70424,1,P10,1,0,0
84,2,0.97131,1,P10,1,0,0
85,2,0.63595,1,P10,0,0,0
86,2,0.67498,1,P10,0,0,0
87,2,0.86004,1,P10,1,0,0
88,2,0.7434,1,P10,0,0,0
89,2,0.67031,1,P10,0,0,0
90,2,0.61113,1,P10,0,0,0
91,2,1.1519,1,P10,1,0,0
92,2,0.76666,1,P10,1,0,0
93,2,0.62328,1,P10,0,0,0
94,2,0.56574,1,P10,0,0,0
95,2,0.78935,1,P10,1,0,0
96,2,0.86862,1,P10,1,0,0
97,2,0.90372,1,P10,1,0,0
98,2,0.65081,1,P10,0,0,0
99,2,0.82631,1,P10,1,0,0
100,2,0.71365,1,P10,1,0,0
101,2,0.64857,1,P10,0,0,0
102,2,0.72749,1,P10,0,0,0
103,2,0.86426,1,P10,1,0,0
104,2,0.89352,1,P10,0,0,0
105,2,0.61224,1,P10,0,0,0
106,2,0.63124,1,P10,0,0,0
107,2,0.55213,1,P10,1,0,0
108,2,0.62249,1,P10,0,0,0
109,2,0.67537,1,P10,0,0,0
110,2,0.71635,1,P10,1,0,0
111,2,0.77321,1,P10,1,0,0
112,2,0.74613,1,P10,0,0,0
113,2,0.73515,1,P10,0,0,0
114,2,0.67624,1,P10,1,0,0
115,2,0.69978,1,P10,0,0,0
116,2,0.75069,1,P10,1,0,0
117,2,0.62972,1,P10,0,0,0
118,2,0.66664,1,P10,0,0,0
119,2,0.68125,1,P10,1,0,0
120,2,0.64869,1,P10,1,0,0
121,2,0.60369,1,P10,0,0,0
122,2,0.62282,1,P10,0,0,0
123,2,0.72411,1,P10,1,0,0
124,2,0.6107,1,P10,1,0,0
125,2,0.8457,1,P10,1,0,0
126,2,0.64445,1,P10,0,0,0
127,2,0.7898,1,P10,1,0,0
128,2,0.70036,1,P10,1,0,0
2,1,1.2894,1,P11,1,0,1
3,1,1.0703,1,P11,1,0,0
4,1,0.70984,1,P11,0,0,0
5,1,1.1129,1,P11,1,0,0
6,1,1.3182,1,P11,1,0,0
7,1,0.83886,1,P11,0,0,0
8,1,1.31,1,P11,1,0,0
9,1,1.5028,1,P11,1,0,0
10,1,1.5721,1,P11,1,0,0
11,1,0.7867,1,P11,0,0,0
12,1,0.93145,1,P11,0,0,0
13,1,1.6364,1,P11,0,0,0
14,1,1.4973,1,P11,1,0,0
15,1,0.76672,1,P11,1,0,0
16,1,0.58748,1,P11,0,0,0
17,1,1.1904,1,P11,1,0,0
18,1,1.1813,1,P11,1,0,0
19,1,0.88648,1,P11,0,0,0
20,1,1.3552,1,P11,0,0,0
21,1,0.80829,1,P11,1,0,0
22,1,1.1652,1,P11,1,0,0
23,1,0.56625,1,P11,0,0,0
24,1,0.75707,1,P11,1,0,0
25,1,1.4903,1,P11,1,0,0
26,1,1.2578,1,P11,0,0,0
27,1,0.7726,1,P11,0,0,0
28,1,0.66795,1,P11,0,0,0
29,1,0.82715,1,P11,1,0,0
30,1,1.0559,1,P11,1,0,0
31,1,0.68113,1,P11,0,0,0
32,1,1.0943,1,P11,1,0,0
33,1,0.75772,1,P11,0,0,0
34,1,1.0624,1,P11,1,0,0
35,1,0.7591,1,P11,0,0,0
36,1,0.81415,1,P11,0,0,0
37,1,0.86096,0,P11,1,0,0
38,1,1.1017,1,P11,1,0,0
39,1,0.98701,1,P11,0,0,0
40,1,0.5001,1,P11,0,0,0
41,1,0.67693,1,P11,0,0,0
42,1,0.83999,1,P11,1,0,0
43,1,1.3531,1,P11,1,0,0
44,1,1.0063,1,P11,1,0,0
45,1,0.66357,1,P11,0,0,0
46,1,0.734,1,P11,0,0,0
47,1,0.8774,1,P11,1,0,0
48,1,1.1127,1,P11,1,0,0
49,1,0.62954,1,P11,0,0,0
50,1,0.555,1,P11,0,0,0
51,1,0.71446,1,P11,0,0,0
52,1,1.1138,1,P11,1,0,0
53,1,1.1185,1,P11,0,0,0
54,1,0.56933,1,P11,0,0,0
55,1,0.73411,1,P11,0,0,0
56,1,1.1091,1,P11,1,0,0
57,1,1.0724,1,P11,1,0,0
58,1,0.72779,1,P11,0,0,0
59,1,1.2988,1,P11,1,0,0
60,1,0.67596,1,P11,0,0,0
61,1,0.60112,1,P11,0,0,0
62,1,0.60625,1,P11,0,0,0
63,1,1.529,0,P11,1,0,0
1,1,1.5924,0,P12,0,0,1
2,1,1.4751,1,P12,1,0,0
3,1,1.1121,1,P12,1,0,0
4,1,1.4234,1,P12,0,0,0
5,1,1.1545,1,P12,1,0,0
6,1,1.4396,1,P12,1,0,0
7,1,0.92857,1,P12,0,0,0
8,1,0.95941,1,P12,1,0,0
9,1,1.2726,1,P12,1,0,0
10,1,0.9177,1,P12,1,0,0
11,1,1.0364,1,P12,0,0,0
12,1,0.97312,1,P12,0,0,0
13,1,1.2062,1,P12,0,0,0
15,1,1.3684,1,P12,1,0,0
16,1,0.74936,1,P12,0,0,0
17,1,0.98409,0,P12,1,0,0
18,1,1.3831,1,P12,1,0,0
19,1,0.75215,1,P12,0,0,0
20,1,1.0449,1,P12,0,0,0
21,1,1.002,1,P12,1,0,0
22,1,0.87878,1,P12,1,0,0
23,1,0.8718,1,P12,0,0,0
24,1,1.3827,0,P12,1,0,0
25,1,1.2199,1,P12,1,0,0
26,1,0.90737,1,P12,0,0,0
27,1,0.95018,1,P12,0,0,0
28,1,0.82956,1,P12,0,0,0
29,1,1.3168,1,P12,1,0,0
30,1,1.1938,1,P12,1,0,0
31,1,0.75485,1,P12,0,0,0
32,1,1.7119,1,P12,1,0,0
33,1,0.85539,1,P12,0,0,0
34,1,1.4482,1,P12,1,0,0
35,1,1.0009,1,P12,0,0,0
36,1,0.87191,1,P12,0,0,0
37,1,0.91865,1,P12,1,0,0
38,1,1.2554,1,P12,1,0,0
39,1,0.80466,1,P12,0,0,0
40,1,1.0058,1,P12,0,0,0
41,1,0.75052,1,P12,0,0,0
42,1,1.2657,1,P12,1,0,0
43,1,0.98664,1,P12,1,0,0
44,1,1.4,1,P12,1,0,0
45,1,0.72099,1,P12,0,0,0
46,1,0.90372,1,P12,0,0,0
47,1,1.4708,1,P12,1,0,0
48,1,1.4262,1,P12,1,0,0
49,1,1.0075,1,P12,0,0,0
50,1,1.1005,1,P12,0,0,0
51,1,0.83596,1,P12,0,0,0
52,1,1.4193,1,P12,1,0,0
53,1,0.78431,1,P12,0,0,0
54,1,0.81106,1,P12,0,0,0
55,1,0.76779,1,P12,0,0,0
56,1,1.055,1,P12,1,0,0
57,1,1.1221,1,P12,1,0,0
58,1,0.79337,1,P12,0,0,0
59,1,1.1486,1,P12,1,0,0
60,1,0.93363,1,P12,0,0,0
61,1,1.1867,1,P12,0,0,0
62,1,0.88762,1,P12,0,0,0
63,1,1.1385,1,P12,1,0,0
64,1,1.0416,0,P12,1,0,0
65,2,1.5073,1,P12,0,0,1
66,2,0.65399,1,P12,0,0,0
67,2,0.92919,1,P12,0,0,0
68,2,0.98794,1,P12,1,0,0
69,2,1.0028,0,P12,1,0,0
70,2,0.71567,1,P12,0,0,0
71,2,0.91862,1,P12,1,0,0
72,2,0.92753,1,P12,0,0,0
73,2,0.93844,1,P12,0,0,0
74,2,0.78568,1,P12,0,0,0
75,2,1.1806,1,P12,1,0,0
76,2,1.587,1,P12,1,0,0
77,2,1.1762,1,P12,1,0,0
78,2,0.865,1,P12,0,0,0
79,2,0.91957,1,P12,0,0,0
80,2,1.1442,1,P12,1,0,0
81,2,1.0154,1,P12,1,0,0
82,2,1.246,1,P12,1,0,0
83,2,0.77513,1,P12,0,0,0
84,2,1.5058,1,P12,1,0,0
85,2,1.2506,1,P12,1,0,0
86,2,1.0636,1,P12,1,0,0
87,2,0.87886,1,P12,0,0,0
88,2,1.2019,1,P12,1,0,0
89,2,1.5133,1,P12,1,0,0
90,2,1.1645,1,P12,1,0,0
91,2,0.91334,1,P12,0,0,0
92,2,0.91662,1,P12,0,0,0
93,2,0.68383,1,P12,0,0,0
94,2,1.1585,1,P12,1,0,0
95,2,1.1938,1,P12,1,0,0
96,2,0.91324,1,P12,1,0,0
97,2,0.83992,1,P12,0,0,0
98,2,0.70475,1,P12,0,0,0
99,2,0.65991,1,P12,0,0,0
100,2,0.85932,1,P12,1,0,0
101,2,0.91038,1,P12,1,0,0
102,2,1.2058,1,P12,1,0,0
103,2,0.77103,1,P12,0,0,0
104,2,1.1162,1,P12,1,0,0
105,2,0.75903,1,P12,0,0,0
106,2,0.66201,1,P12,0,0,0
107,2,1.2125,1,P12,0,0,0
108,2,1.0693,1,P12,1,0,0
109,2,0.65996,1,P12,0,0,0
110,2,1.309,1,P12,1,0,0
111,2,1.4217,1,P12,1,0,0
112,2,1.0989,1,P12,1,0,0
113,2,1.07,1,P12,0,0,0
114,2,0.86934,1,P12,0,0,0
115,2,0.78419,1,P12,0,0,0
116,2,0.94154,1,P12,1,0,0
117,2,0.75416,1,P12,0,0,0
118,2,0.94707,1,P12,0,0,0
119,2,1.0059,1,P12,1,0,0
120,2,0.96102,1,P12,1,0,0
121,2,0.85382,1,P12,0,0,0
122,2,1.4128,1,P12,1,0,0
123,2,0.77178,1,P12,0,0,0
124,2,0.7566,1,P12,0,0,0
125,2,1.1176,1,P12,1,0,0
126,2,0.57095,1,P12,0,0,0
127,2,0.5758,1,P12,0,0,0
128,2,1.3285,1,P12,1,0,0
1,1,1.233,1,P12,0,0,1
2,1,1.2372,1,P12,1,0,0
3,1,0.86225,1,P12,0,0,0
4,1,0.80565,1,P12,0,0,0
5,1,1.3265,1,P12,1,0,0
7,1,1.4206,1,P12,0,0,0
8,1,0.82,1,P12,0,0,0
9,1,0.67064,0,P12,0,0,0
10,1,1.35,1,P12,1,0,0
11,1,1.3288,1,P12,0,0,0
12,1,1.224,0,P12,1,0,0
13,1,1.3908,1,P12,1,0,0
14,1,1.3973,1,P12,0,0,0
15,1,1.2987,1,P12,1,0,0
16,1,0.7039,1,P12,0,0,0
17,1,1.6006,1,P12,1,0,0
18,1,1.6079,1,P12,1,0,0
19,1,1.2089,1,P12,0,0,0
20,1,1.5959,1,P12,1,0,0
21,1,1.1266,1,P12,1,0,0
22,1,1.0177,1,P12,0,0,0
23,1,1.4808,1,P12,1,0,0
24,1,1.5514,1,P12,1,0,0
25,1,1.3205,1,P12,1,0,0
26,1,1.2454,1,P12,0,0,0
27,1,1.3487,1,P12,1,0,0
28,1,1.4395,1,P12,1,0,0
29,1,0.6822,1,P12,0,0,0
30,1,1.0072,1,P12,0,0,0
31,1,0.88412,1,P12,0,0,0
32,1,1.1308,1,P12,1,0,0
33,1,1.2594,1,P12,1,0,0
34,1,1.2982,1,P12,1,0,0
35,1,1.2371,1,P12,0,0,0
36,1,0.8362,1,P12,0,0,0
37,1,1.5913,1,P12,1,0,0
38,1,1.3284,1,P12,1,0,0
39,1,1.1094,1,P12,0,0,0
40,1,1.2083,1,P12,0,0,0
41,1,1.2732,1,P12,1,0,0
42,1,1.4979,1,P12,1,0,0
43,1,0.9932,1,P12,0,0,0
44,1,1.1522,1,P12,0,0,0
45,1,1.1654,1,P12,0,0,0
46,1,1.7201,1,P12,1,0,0
47,1,1.2291,1,P12,1,0,0
48,1,1.4404,1,P12,1,0,0
49,1,0.78744,1,P12,0,0,0
50,1,1.1981,1,P12,0,0,0
51,1,1.4093,1,P12,0,0,0
53,1,0.92906,1,P12,0,0,0
54,1,0.89779,1,P12,0,0,0
55,1,0.96661,1,P12,0,0,0
56,1,0.97329,1,P12,1,0,0
57,1,1.2326,1,P12,0,0,0
59,1,1.4669,1,P12,1,0,0
60,1,1.3841,1,P12,1,0,0
61,1,1.5869,1,P12,1,0,0
62,1,0.82975,1,P12,0,0,0
63,1,0.82454,1,P12,0,0,0
64,1,1.2117,1,P12,1,0,0
65,2,1.2364,1,P12,0,0,1
66,2,0.71163,1,P12,0,0,0
67,2,1.3404,0,P12,0,0,0
68,2,0.80547,1,P12,0,0,0
69,2,1.4686,1,P12,1,0,0
70,2,0.94153,1,P12,1,0,0
71,2,0.89267,1,P12,1,0,0
72,2,0.89739,1,P12,0,0,0
73,2,0.69614,1,P12,0,0,0
74,2,0.79875,1,P12,0,0,0
75,2,1.3475,1,P12,1,0,0
76,2,1.1789,1,P12,1,0,0
77,2,0.7122,1,P12,0,0,0
78,2,1.075,1,P12,0,0,0
79,2,1.0681,1,P12,1,0,0
80,2,1.3946,1,P12,1,0,0
81,2,0.77562,1,P12,0,0,0
82,2,0.89418,1,P12,1,0,0
83,2,0.6809,1,P12,0,0,0
84,2,0.87378,1,P12,0,0,0
85,2,1.4327,1,P12,1,0,0
86,2,0.93989,1,P12,1,0,0
87,2,1.1449,1,P12,1,0,0
88,2,0.88034,1,P12,0,0,0
89,2,0.92564,1,P12,0,0,0
90,2,1.3144,1,P12,1,0,0
91,2,1.1612,1,P12,1,0,0
92,2,1.1424,1,P12,1,0,0
93,2,0.98309,1,P12,0,0,0
94,2,0.84635,1,P12,0,0,0
95,2,1.0837,1,P12,1,0,0
97,2,0.70169,1,P12,0,0,0
98,2,0.8331,1,P12,0,0,0
99,2,1.1275,1,P12,1,0,0
100,2,1.1104,1,P12,1,0,0
101,2,0.65154,1,P12,0,0,0
102,2,1.1381,1,P12,1,0,0
103,2,1.0109,1,P12,0,0,0
104,2,0.80588,1,P12,0,0,0
105,2,1.2008,1,P12,1,0,0
106,2,1.4077,1,P12,1,0,0
107,2,0.82482,1,P12,0,0,0
108,2,0.74555,1,P12,0,0,0
109,2,1.1199,1,P12,1,0,0
110,2,0.75881,1,P12,0,0,0
111,2,0.95579,1,P12,0,0,0
112,2,0.72287,1,P12,0,0,0
113,2,1.458,1,P12,1,0,0
114,2,1.3568,1,P12,1,0,0
115,2,0.78734,1,P12,0,0,0
116,2,0.69863,1,P12,0,0,0
117,2,0.90995,1,P12,0,0,0
118,2,1.2273,1,P12,1,0,0
119,2,0.886,1,P12,0,0,0
120,2,1.3549,1,P12,1,0,0
121,2,0.58771,1,P12,0,0,0
122,2,1.1466,1,P12,1,0,0
123,2,1.0917,1,P12,1,0,0
124,2,1.0821,1,P12,1,0,0
125,2,1.1512,1,P12,0,0,0
126,2,1.1222,1,P12,1,0,0
127,2,1.501,0,P12,1,0,0
128,2,1.0277,1,P12,1,0,0
2,1,1.3054,1,P14,1,0,1
3,1,1.1822,1,P14,1,0,0
4,1,1.2857,1,P14,0,0,0
5,1,1.257,1,P14,1,0,0
6,1,1.4142,1,P14,1,0,0
7,1,1.3187,1,P14,0,0,0
8,1,1.0617,1,P14,1,0,0
9,1,1.1987,1,P14,1,0,0
10,1,1.1,1,P14,1,0,0
11,1,1.0427,1,P14,0,0,0
12,1,1.1555,1,P14,0,0,0
13,1,1.5165,1,P14,0,0,0
14,1,1.1054,1,P14,1,0,0
15,1,1.1185,1,P14,1,0,0
16,1,0.89961,1,P14,0,0,0
17,1,1.0862,1,P14,1,0,0
18,1,1.2452,1,P14,1,0,0
19,1,1.1103,1,P14,0,0,0
20,1,1.0672,1,P14,0,0,0
21,1,1.1042,1,P14,1,0,0
22,1,1.1091,1,P14,1,0,0
23,1,0.99014,1,P14,0,0,0
24,1,1.1811,1,P14,1,0,0
25,1,1.2583,1,P14,1,0,0
26,1,1.0896,1,P14,0,0,0
27,1,1.0845,1,P14,0,0,0
28,1,1.1398,1,P14,0,0,0
29,1,0.98709,1,P14,1,0,0
30,1,1.0561,1,P14,1,0,0
31,1,1.065,1,P14,0,0,0
32,1,1.2863,1,P14,1,0,0
33,1,0.98979,1,P14,0,0,0
34,1,1.0705,1,P14,1,0,0
35,1,1.0712,1,P14,0,0,0
36,1,0.9421,1,P14,0,0,0
37,1,1.1492,1,P14,1,0,0
38,1,1.1019,1,P14,1,0,0
39,1,1.5631,1,P14,0,0,0
40,1,1.4601,1,P14,0,0,0
41,1,1.2369,1,P14,0,0,0
42,1,1.2719,1,P14,1,0,0
43,1,1.0249,1,P14,1,0,0
44,1,1.2942,1,P14,1,0,0
45,1,1.0313,1,P14,0,0,0
46,1,0.97383,1,P14,0,0,0
47,1,1.0134,1,P14,1,0,0
48,1,1.0643,1,P14,1,0,0
49,1,1.2538,1,P14,0,0,0
50,1,1.0269,1,P14,0,0,0
51,1,1.0502,1,P14,0,0,0
52,1,1.1536,1,P14,1,0,0
53,1,1.1584,1,P14,0,0,0
54,1,1.1053,1,P14,0,0,0
55,1,0.98224,1,P14,0,0,0
56,1,1.2051,1,P14,1,0,0
57,1,1.2244,1,P14,1,0,0
58,1,0.9916,1,P14,0,0,0
59,1,0.97894,1,P14,1,0,0
60,1,0.97187,1,P14,0,0,0
61,1,0.98501,1,P14,0,0,0
62,1,0.94212,1,P14,0,0,0
63,1,1.4969,1,P14,1,0,0
64,1,1.3677,1,P14,1,0,0
65,2,1.1803,1,P14,0,0,1
66,2,0.69483,1,P14,0,0,0
67,2,1.5941,1,P14,0,0,0
68,2,1.1408,1,P14,1,0,0
69,2,1.3639,1,P14,1,0,0
70,2,1.2047,1,P14,0,0,0
71,2,1.1354,1,P14,1,0,0
73,2,1.0113,1,P14,0,0,0
75,2,1.2215,1,P14,1,0,0
76,2,1.1801,1,P14,1,0,0
77,2,1.0889,1,P14,1,0,0
78,2,1.1299,1,P14,0,0,0
79,2,1.1206,1,P14,0,0,0
80,2,1.3773,1,P14,1,0,0
81,2,1.5364,1,P14,1,0,0
82,2,1.5109,1,P14,1,0,0
83,2,1.2962,1,P14,0,0,0
84,2,1.1309,1,P14,1,0,0
85,2,1.1155,1,P14,1,0,0
86,2,1.1365,1,P14,1,0,0
87,2,1.0638,1,P14,0,0,0
88,2,1.2749,1,P14,1,0,0
91,2,1.0664,1,P14,0,0,0
92,2,0.98941,1,P14,0,0,0
93,2,0.66066,1,P14,0,0,0
94,2,1.2315,1,P14,1,0,0
95,2,1.2667,1,P14,1,0,0
96,2,1.2581,1,P14,1,0,0
97,2,1.0246,1,P14,0,0,0
98,2,1.0817,1,P14,0,0,0
99,2,1.0049,1,P14,0,0,0
100,2,1.0762,1,P14,1,0,0
101,2,1.0155,1,P14,1,0,0
102,2,1.0707,1,P14,1,0,0
103,2,0.97204,1,P14,0,0,0
104,2,1.0291,1,P14,1,0,0
105,2,0.92782,1,P14,0,0,0
106,2,0.89471,1,P14,0,0,0
107,2,0.8695,1,P14,0,0,0
108,2,1.0621,1,P14,1,0,0
109,2,1.085,1,P14,0,0,0
110,2,1.3339,1,P14,1,0,0
111,2,1.1105,1,P14,1,0,0
112,2,1.0758,1,P14,1,0,0
113,2,0.83894,1,P14,0,0,0
114,2,1.0542,1,P14,0,0,0
115,2,0.72918,1,P14,0,0,0
116,2,1.1263,1,P14,1,0,0
117,2,0.87524,1,P14,0,0,0
118,2,0.95612,1,P14,0,0,0
119,2,1.1269,1,P14,1,0,0
120,2,1.0499,1,P14,1,0,0
121,2,1.0869,1,P14,0,0,0
122,2,1.0379,1,P14,1,0,0
123,2,0.98884,1,P14,0,0,0
124,2,1.1174,1,P14,0,0,0
125,2,1.0786,1,P14,1,0,0
126,2,0.8998,1,P14,0,0,0
127,2,1.2249,1,P14,0,0,0
128,2,0.96945,1,P14,1,0,0
1,1,1.1156,1,P15,0,0,1
2,1,1.0027,1,P15,0,0,0
3,1,0.92808,1,P15,1,0,0
4,1,1.0452,1,P15,1,0,0
5,1,0.93052,1,P15,1,0,0
6,1,0.97325,1,P15,0,0,0
7,1,0.85044,1,P15,0,0,0
8,1,0.7077,1,P15,0,0,0
9,1,0.92255,1,P15,1,0,0
10,1,1.1413,1,P15,1,0,0
11,1,1.0347,1,P15,0,0,0
12,1,0.9834,1,P15,1,0,0
13,1,1.1623,1,P15,1,0,0
14,1,0.79142,1,P15,1,0,0
15,1,1.1042,1,P15,0,0,0
16,1,0.80932,1,P15,0,0,0
17,2,1.0822,1,P15,0,0,1
18,2,1.077,1,P15,1,0,0
19,2,0.77779,1,P15,1,0,0
20,2,0.88106,1,P15,0,0,0
21,2,0.72416,1,P15,1,0,0
22,2,1.0095,1,P15,1,0,0
23,2,0.97018,1,P15,0,0,0
24,2,0.6732,1,P15,1,0,0
25,2,1.2983,1,P15,1,0,0
26,2,0.72758,1,P15,1,0,0
27,2,0.9341,1,P15,0,0,0
28,2,0.76695,1,P15,0,0,0
29,2,0.78396,1,P15,0,0,0
30,2,0.81288,1,P15,1,0,0
31,2,1.322,1,P15,1,0,0
32,2,1.015,1,P15,0,0,0
33,2,0.90581,1,P15,1,0,0
34,2,1.1289,1,P15,1,0,0
35,2,0.87377,1,P15,0,0,0
36,2,0.89489,1,P15,0,0,0
37,2,1.0674,1,P15,1,0,0
38,2,1.0005,1,P15,1,0,0
39,2,0.82544,1,P15,0,0,0
40,2,0.84054,1,P15,1,0,0
41,2,1.1817,1,P15,1,0,0
42,2,0.86113,1,P15,0,0,0
43,2,0.89578,1,P15,0,0,0
44,2,0.88718,1,P15,0,0,0
45,2,0.75861,1,P15,1,0,0
46,2,0.73929,1,P15,1,0,0
47,2,1.0044,1,P15,0,0,0
48,2,1.0577,1,P15,1,0,0
49,2,0.84905,1,P15,0,0,0
50,2,0.95389,1,P15,1,0,0
51,2,0.91447,1,P15,0,0,0
52,2,0.7614,1,P15,0,0,0
53,2,1.0724,1,P15,1,0,0
54,2,0.84114,1,P15,1,0,0
55,2,1.5183,1,P15,0,0,0
56,2,0.86344,1,P15,0,0,0
57,2,0.75225,1,P15,0,0,0
58,2,1.3314,1,P15,1,0,0
59,2,1.0284,1,P15,1,0,0
60,2,1.2415,1,P15,1,0,0
61,2,0.8427,1,P15,0,0,0
62,2,0.88134,1,P15,0,0,0
63,2,1.5766,1,P15,1,0,0
64,2,1.2037,1,P15,1,0,0
65,2,0.92105,1,P15,0,0,0
66,2,0.6624,1,P15,0,0,0
67,2,0.89369,1,P15,0,0,0
68,2,0.82095,1,P15,1,0,0
69,2,0.81772,1,P15,0,0,0
70,2,0.66056,1,P15,0,0,0
71,2,0.93749,1,P15,0,0,0
72,2,1.3125,1,P15,1,0,0
73,2,1.3156,1,P15,1,0,0
74,2,0.94689,1,P15,0,0,0
75,2,1.1022,1,P15,1,0,0
76,2,0.74322,1,P15,0,0,0
77,2,0.7964,1,P15,0,0,0
78,2,0.89736,1,P15,0,0,0
79,2,0.93226,1,P15,1,0,0
80,2,0.98718,1,P15,1,0,0
3,1,0.86317,1,P15,0,0,1
4,1,0.79378,1,P15,1,0,0
5,1,1.1447,1,P15,1,0,0
6,2,1.0161,1,P15,0,0,1
7,2,0.68346,1,P15,1,0,0
9,2,0.66779,1,P15,0,0,0
10,2,0.8689,1,P15,1,0,0
11,2,1.2341,1,P15,1,0,0
12,2,0.86666,1,P15,0,0,0
13,2,0.63413,1,P15,0,0,0
14,2,0.77279,1,P15,0,0,0
15,2,1.4201,1,P15,1,0,0
16,2,0.87093,1,P15,0,0,0
17,2,0.7343,1,P15,1,0,0
18,2,0.98095,1,P15,1,0,0
19,2,0.8277,1,P15,0,0,0
20,2,0.71302,1,P15,1,0,0
21,2,0.58228,1,P15,0,0,0
22,2,0.83885,1,P15,1,0,0
23,2,0.73416,1,P15,1,0,0
24,2,0.67075,1,P15,0,0,0
25,2,0.89802,1,P15,1,0,0
26,2,0.81298,1,P15,1,0,0
27,2,0.86388,1,P15,0,0,0
28,2,1.407,1,P15,1,0,0
29,2,1.0296,1,P15,1,0,0
30,2,0.78262,1,P15,1,0,0
31,2,0.86756,1,P15,0,0,0
32,2,0.95497,1,P15,1,0,0
33,2,1.0617,1,P15,1,0,0
34,2,0.68853,1,P15,0,0,0
35,2,0.59743,1,P15,0,0,0
36,2,0.82622,1,P15,0,0,0
37,2,1.3609,1,P15,1,0,0
38,2,1.2337,1,P15,1,0,0
39,2,0.88831,1,P15,1,0,0
40,2,1.0834,1,P15,0,0,0
41,2,0.58636,1,P15,0,0,0
42,2,0.76558,1,P15,1,0,0
43,2,0.8705,1,P15,1,0,0
44,2,0.89137,1,P15,0,0,0
45,2,0.52661,1,P15,0,0,0
46,2,0.70323,1,P15,1,0,0
47,2,0.91206,1,P15,1,0,0
48,2,0.66345,1,P15,0,0,0
49,2,0.77448,1,P15,0,0,0
50,2,0.70777,1,P15,0,0,0
51,2,0.92655,1,P15,1,0,0
53,2,1.0304,1,P15,1,0,0
54,2,0.58559,1,P15,0,0,0
55,2,0.77242,1,P15,0,0,0
56,2,1.1595,1,P15,0,0,0
57,2,0.79637,1,P15,1,0,0
58,2,0.63117,1,P15,0,0,0
59,2,0.90393,1,P15,0,0,0
60,2,0.55685,1,P15,0,0,0
61,2,0.81946,1,P15,1,0,0
62,2,0.83882,1,P15,0,0,0
63,2,1.0439,1,P15,0,0,0
64,2,1.1692,1,P15,1,0,0
65,2,1.2143,1,P15,1,0,0
66,2,1.1772,1,P15,1,0,0
67,2,1.2999,1,P15,0,0,0
68,2,1.1507,1,P15,0,0,0
1,1,1.4822,1,P16,0,0,1
2,1,1.1137,1,P16,1,0,0
3,1,1.0083,1,P16,1,0,0
4,1,1.0253,1,P16,1,0,0
5,1,1.1444,1,P16,0,0,0
6,1,0.90175,1,P16,1,0,0
7,1,0.80296,1,P16,0,0,0
8,1,0.73798,1,P16,0,0,0
9,1,0.86496,1,P16,0,0,0
10,1,1.3423,1,P16,1,0,0
11,1,1.1209,1,P16,1,0,0
12,2,1.0049,1,P16,0,0,1
13,2,1.1032,1,P16,1,0,0
14,2,0.71319,1,P16,0,0,0
15,2,1.0564,1,P16,0,0,0
16,2,0.7293,1,P16,1,0,0
17,2,1.2225,1,P16,1,0,0
18,2,1.239,1,P16,0,0,0
19,2,0.91047,1,P16,0,0,0
20,2,0.74526,1,P16,0,0,0
21,2,1.6278,1,P16,1,0,0
22,2,0.84053,1,P16,0,0,0
23,2,0.99319,1,P16,1,0,0
24,2,1.1452,1,P16,1,0,0
25,2,0.8957,1,P16,0,0,0
26,2,0.82882,1,P16,1,0,0
27,2,1.226,1,P16,0,0,0
28,2,1.0987,1,P16,1,0,0
29,2,1.6499,1,P16,1,0,0
30,2,0.79702,1,P16,0,0,0
31,2,0.96174,0,P16,1,0,0
32,2,0.94236,1,P16,1,0,0
33,2,0.85116,1,P16,0,0,0
34,2,1.1065,1,P16,1,0,0
35,2,0.84095,1,P16,1,0,0
36,2,0.97807,1,P16,1,0,0
37,2,0.99892,1,P16,0,0,0
38,2,1.0382,1,P16,1,0,0
39,2,1.3049,1,P16,1,0,0
40,2,0.79901,1,P16,0,0,0
41,2,1.0778,1,P16,0,0,0
42,2,0.70045,1,P16,0,0,0
43,2,1.1881,1,P16,1,0,0
44,2,1.2046,1,P16,1,0,0
45,2,0.68327,1,P16,1,0,0
46,2,0.63831,1,P16,0,0,0
47,2,0.68531,1,P16,0,0,0
48,2,1.3283,1,P16,1,0,0
49,2,1.3963,1,P16,1,0,0
50,2,0.74713,1,P16,0,0,0
51,2,0.67188,1,P16,0,0,0
52,2,0.86594,1,P16,1,0,0
53,2,0.72271,1,P16,1,0,0
54,2,0.76183,1,P16,0,0,0
55,2,0.72899,1,P16,0,0,0
56,2,0.64593,1,P16,0,0,0
57,2,0.92879,1,P16,1,0,0
58,2,0.77357,0,P16,1,0,0
59,2,1.1084,1,P16,1,0,0
60,2,0.84113,1,P16,0,0,0
61,2,0.59769,1,P16,0,0,0
62,2,1.0016,1,P16,0,0,0
63,2,0.97453,1,P16,1,0,0
64,2,0.66521,1,P16,0,0,0
65,2,0.7139,1,P16,0,0,0
66,2,0.6386,1,P16,0,0,0
67,2,1.0612,1,P16,1,0,0
68,2,0.97983,1,P16,0,0,0
69,2,0.75439,1,P16,0,0,0
70,2,0.68908,0,P16,1,0,0
71,2,0.81575,1,P16,1,0,0
72,2,0.81076,1,P16,1,0,0
73,2,0.74157,1,P16,0,0,0
74,2,0.68819,1,P16,0,0,0
75,2,1.1234,1,P16,1,0,0
77,3,0.6325,1,P16,0,0,1
78,3,0.7492,1,P16,0,0,0
79,3,0.90454,1,P16,1,0,0
80,3,1.2394,1,P16,1,0,0
81,3,0.744,1,P16,0,0,0
82,3,1.0748,1,P16,1,0,0
83,3,0.8278,1,P16,0,0,0
84,3,0.58255,1,P16,0,0,0
85,3,0.74507,1,P16,0,0,0
86,3,1.1738,1,P16,1,0,0
87,3,1.1826,1,P16,1,0,0
88,3,1.2841,1,P16,1,0,0
89,3,0.70091,1,P16,0,0,0
90,3,0.61156,1,P16,0,0,0
91,3,1.4282,1,P16,1,0,0
92,3,1.2831,1,P16,1,0,0
93,3,0.92186,1,P16,1,0,0
94,3,0.95845,1,P16,0,0,0
95,3,1.2431,1,P16,1,0,0
96,3,1.2138,1,P16,1,0,0
97,3,0.99494,1,P16,1,0,0
98,3,0.77818,1,P16,0,0,0
99,3,1.4854,1,P16,1,0,0
100,3,0.93276,1,P16,1,0,0
101,3,1.1277,1,P16,1,0,0
102,3,1.1165,1,P16,0,0,0
103,3,0.8797,1,P16,0,0,0
104,3,0.91456,1,P16,0,0,0
105,3,1.0552,1,P16,1,0,0
106,3,0.94803,1,P16,1,0,0
107,3,1.0361,1,P16,1,0,0
108,3,0.72276,1,P16,0,0,0
109,3,0.76372,1,P16,0,0,0
110,3,0.70283,1,P16,0,0,0
111,3,1.51,1,P16,1,0,0
112,3,1.5132,1,P16,1,0,0
113,3,1.2165,1,P16,1,0,0
114,3,0.74976,1,P16,0,0,0
115,3,0.70724,1,P16,1,0,0
116,3,0.62389,1,P16,0,0,0
117,3,0.83253,1,P16,0,0,0
118,3,0.61493,1,P16,0,0,0
119,3,0.98368,1,P16,1,0,0
120,3,0.84614,1,P16,0,0,0
121,3,1.127,1,P16,1,0,0
122,3,1.1758,1,P16,1,0,0
123,3,1.3758,1,P16,1,0,0
124,3,0.67649,1,P16,0,0,0
125,3,0.78116,1,P16,0,0,0
126,3,0.68194,1,P16,0,0,0
127,3,1.1434,1,P16,1,0,0
128,3,0.65214,1,P16,0,0,0
129,3,0.52498,1,P16,0,0,0
130,3,0.96758,1,P16,1,0,0
131,3,1.0827,1,P16,1,0,0
132,3,0.87951,1,P16,0,0,0
133,3,0.9858,1,P16,1,0,0
134,3,0.77848,1,P16,0,0,0
135,3,0.60524,1,P16,0,0,0
136,3,1.351,1,P16,1,0,0
137,3,1.1562,1,P16,0,0,0
138,3,0.85702,1,P16,0,0,0
139,3,1.1939,1,P16,1,0,0
140,4,0.99589,1,P16,0,0,1
141,4,1.144,1,P16,1,0,0
142,4,0.87861,1,P16,1,0,0
143,4,0.59915,1,P16,0,0,0
144,4,0.9237,1,P16,1,0,0
145,4,1.0986,1,P16,1,0,0
146,4,0.69985,1,P16,0,0,0
147,4,1.1467,1,P16,1,0,0
148,4,1.2838,1,P16,1,0,0
149,4,0.83285,1,P16,1,0,0
150,4,0.67935,1,P16,0,0,0
151,4,0.79214,1,P16,0,0,0
152,4,0.9565,1,P16,0,0,0
153,4,1.0273,1,P16,1,0,0
154,4,1.4899,1,P16,1,0,0
155,4,0.66404,1,P16,0,0,0
156,4,1.6188,1,P16,1,0,0
157,4,1.0257,1,P16,1,0,0
158,4,0.84284,1,P16,0,0,0
159,4,0.75148,1,P16,0,0,0
160,4,0.98026,1,P16,1,0,0
161,4,0.90513,1,P16,1,0,0
162,4,1.4866,1,P16,0,0,0
163,4,1.1352,1,P16,1,0,0
164,4,1.1179,1,P16,1,0,0
165,4,0.99763,1,P16,0,0,0
166,4,0.78425,1,P16,0,0,0
167,4,0.66373,1,P16,0,0,0
168,4,0.78287,1,P16,1,0,0
169,4,0.99579,1,P16,1,0,0
170,4,1.085,1,P16,0,0,0
171,4,1.2099,1,P16,1,0,0
172,4,0.98852,1,P16,0,0,0
173,4,1.1992,1,P16,1,0,0
174,4,0.76986,1,P16,0,0,0
175,4,0.72167,1,P16,0,0,0
176,4,0.91223,1,P16,1,0,0
177,4,0.78505,1,P16,1,0,0
178,4,0.91022,1,P16,0,0,0
179,4,0.72739,1,P16,0,0,0
180,4,0.55188,1,P16,0,0,0
181,4,1.2536,1,P16,1,0,0
182,4,1.2007,1,P16,1,0,0
183,4,0.86334,1,P16,1,0,0
184,4,0.72989,1,P16,0,0,0
185,4,0.62503,1,P16,0,0,0
186,4,1.1762,1,P16,1,0,0
187,4,1.0672,1,P16,1,0,0
188,4,0.88852,1,P16,0,0,0
189,4,0.80565,1,P16,0,0,0
190,4,0.63688,1,P16,0,0,0
191,4,0.86815,1,P16,1,0,0
192,4,0.56469,1,P16,0,0,0
193,4,0.65726,1,P16,0,0,0
194,4,0.76009,1,P16,0,0,0
195,4,1.2236,1,P16,1,0,0
196,4,1.1147,1,P16,1,0,0
197,4,0.89791,1,P16,0,0,0
198,4,0.83705,1,P16,1,0,0
199,4,0.76606,1,P16,0,0,0
200,4,0.57124,1,P16,0,0,0
201,4,0.62406,1,P16,0,0,0
202,4,0.72657,1,P16,1,0,0
203,4,0.72722,1,P16,1,0,0
204,5,1.1499,1,P16,0,0,1
205,5,0.96211,1,P16,0,0,0
206,5,1.0647,1,P16,0,0,0
207,5,0.67528,1,P16,0,0,0
208,5,1.132,1,P16,1,0,0
209,5,0.94265,1,P16,1,0,0
210,5,0.83143,1,P16,1,0,0
211,5,0.83721,1,P16,0,0,0
212,5,0.73185,1,P16,0,0,0
213,5,0.56225,1,P16,0,0,0
214,5,1.1112,1,P16,1,0,0
215,5,0.94241,1,P16,1,0,0
216,5,0.63561,1,P16,0,0,0
217,5,0.62522,1,P16,0,0,0
218,5,0.65197,1,P16,1,0,0
219,5,0.67652,1,P16,1,0,0
220,5,0.7308,1,P16,0,0,0
221,5,1.0893,1,P16,1,0,0
222,5,0.71617,1,P16,0,0,0
223,5,0.76479,1,P16,0,0,0
224,5,1.1477,1,P16,1,0,0
225,5,0.95877,1,P16,1,0,0
226,5,0.73193,1,P16,1,0,0
227,5,0.6073,1,P16,0,0,0
228,5,0.63798,1,P16,0,0,0
229,5,1.0606,1,P16,1,0,0
230,5,0.76392,1,P16,1,0,0
231,5,0.969,1,P16,1,0,0
232,5,0.77786,1,P16,0,0,0
233,5,0.68909,1,P16,0,0,0
234,5,0.68617,1,P16,1,0,0
235,5,0.85331,1,P16,1,0,0
236,5,0.52815,1,P16,0,0,0
237,5,0.62328,1,P16,0,0,0
238,5,1.128,1,P16,1,0,0
239,5,0.82468,1,P16,1,0,0
240,5,0.71777,1,P16,0,0,0
241,5,1.0282,1,P16,1,0,0
242,5,0.67688,1,P16,0,0,0
243,5,0.80792,1,P16,0,0,0
244,5,0.83475,1,P16,1,0,0
245,5,1.1697,1,P16,1,0,0
246,5,0.74275,1,P16,0,0,0
247,5,0.79327,1,P16,0,0,0
248,5,1.17,1,P16,1,0,0
249,5,0.6484,1,P16,0,0,0
250,5,0.62129,1,P16,0,0,0
251,5,0.66059,1,P16,0,0,0
252,5,0.88334,1,P16,1,0,0
253,5,1.3102,1,P16,1,0,0
254,5,0.94878,1,P16,0,0,0
255,5,0.95206,1,P16,0,0,0
256,5,0.70054,1,P16,0,0,0
257,5,1.0674,1,P16,1,0,0
258,5,0.74302,1,P16,0,0,0
259,5,0.66801,1,P16,1,0,0
260,5,0.68457,1,P16,0,0,0
261,5,0.93934,1,P16,1,0,0
262,5,0.83652,1,P16,1,0,0
263,5,0.97111,1,P16,1,0,0
264,5,0.58725,1,P16,0,0,0
265,5,1.0719,1,P16,1,0,0
266,5,1.3087,1,P16,1,0,0
267,5,1.1404,1,P16,1,0,0
1,1,0.79706,1,P16,0,0,1
2,1,1.1189,1,P16,0,0,0
3,1,0.85189,1,P16,0,0,0
4,1,0.80558,1,P16,0,0,0
5,1,1.6833,1,P16,1,0,0
6,1,0.97625,1,P16,1,0,0
7,1,1.1051,1,P16,1,0,0
8,1,0.77578,1,P16,0,0,0
9,1,0.87857,1,P16,0,0,0
10,1,0.66093,1,P16,0,0,0
11,1,1.2098,1,P16,1,0,0
12,1,1.0411,1,P16,1,0,0
13,1,0.68628,1,P16,0,0,0
14,1,0.665,1,P16,0,0,0
15,1,1.1977,1,P16,1,0,0
16,1,1.0783,1,P16,1,0,0
17,1,0.76505,1,P16,0,0,0
18,1,1.092,1,P16,1,0,0
19,1,1.0388,1,P16,0,0,0
20,1,0.78356,1,P16,0,0,0
21,1,1.2785,1,P16,1,0,0
23,1,0.81459,1,P16,1,0,0
24,1,0.86511,1,P16,0,0,0
25,1,0.73565,1,P16,0,0,0
26,1,1.3024,1,P16,1,0,0
27,1,0.70254,1,P16,1,0,0
28,1,1.0198,1,P16,1,0,0
29,1,0.73231,1,P16,0,0,0
30,1,0.70776,1,P16,0,0,0
31,1,0.80089,1,P16,1,0,0
32,1,1.0963,1,P16,1,0,0
33,1,0.56288,1,P16,0,0,0
34,1,1.153,1,P16,0,0,0
35,1,1.3697,1,P16,1,0,0
36,1,0.73041,1,P16,1,0,0
37,1,0.72055,1,P16,0,0,0
38,1,0.93489,1,P16,1,0,0
39,1,0.63169,1,P16,0,0,0
40,1,0.8267,1,P16,0,0,0
41,1,1.0614,1,P16,1,0,0
43,1,0.95238,1,P16,0,0,0
44,1,0.87517,1,P16,0,0,0
45,1,1.1397,1,P16,1,0,0
46,1,0.58721,1,P16,0,0,0
47,1,0.70393,1,P16,0,0,0
48,1,0.61537,1,P16,0,0,0
49,1,0.77421,1,P16,1,0,0
50,1,1.489,1,P16,1,0,0
51,1,0.87146,1,P16,0,0,0
52,1,0.69787,1,P16,0,0,0
53,1,0.79851,1,P16,0,0,0
55,1,0.71381,1,P16,0,0,0
56,1,1.4387,1,P16,1,0,0
57,1,0.60746,1,P16,0,0,0
58,1,0.89422,1,P16,1,0,0
59,1,1.1111,1,P16,1,0,0
60,1,1.1498,1,P16,1,0,0
61,1,1.0747,1,P16,0,0,0
62,1,1.0417,1,P16,1,0,0
63,1,0.89447,1,P16,1,0,0
64,1,0.67901,1,P16,1,0,0
65,2,0.84707,1,P16,0,0,1
66,2,1.1769,1,P16,0,0,0
67,2,0.81216,1,P16,0,0,0
68,2,0.82319,1,P16,1,0,0
69,2,1.414,1,P16,1,0,0
70,2,0.64654,1,P16,0,0,0
71,2,0.80133,1,P16,1,0,0
72,2,0.79065,1,P16,0,0,0
73,2,0.86725,1,P16,0,0,0
74,2,0.81195,1,P16,0,0,0
75,2,1.5588,1,P16,1,0,0
76,2,1.5336,1,P16,1,0,0
77,2,1.3787,1,P16,1,0,0
78,2,0.6515,1,P16,0,0,0
79,2,0.70608,1,P16,0,0,0
80,2,1.2666,1,P16,1,0,0
81,2,1.4219,1,P16,1,0,0
82,2,1.0146,1,P16,1,0,0
83,2,0.94521,1,P16,0,0,0
84,2,1.612,1,P16,1,0,0
85,2,1.5006,1,P16,1,0,0
86,2,0.46545,0,P16,1,0,0
87,2,0.79286,1,P16,0,0,0
88,2,1.3398,1,P16,1,0,0
89,2,0.979,1,P16,1,0,0
90,2,0.99315,1,P16,1,0,0
91,2,0.71197,1,P16,0,0,0
92,2,0.81266,1,P16,0,0,0
93,2,0.77315,1,P16,0,0,0
94,2,1.6482,1,P16,1,0,0
95,2,1.0593,1,P16,1,0,0
96,2,0.87465,1,P16,1,0,0
97,2,0.65717,1,P16,0,0,0
98,2,1.0662,1,P16,0,0,0
99,2,0.62135,1,P16,0,0,0
100,2,0.68714,1,P16,1,0,0
101,2,1.2198,1,P16,1,0,0
102,2,1.1166,1,P16,1,0,0
103,2,0.57125,1,P16,0,0,0
104,2,0.83738,1,P16,1,0,0
105,2,0.62394,1,P16,0,0,0
106,2,0.91084,1,P16,0,0,0
107,2,0.58146,1,P16,0,0,0
108,2,1.142,1,P16,1,0,0
109,2,0.60484,1,P16,0,0,0
110,2,0.8811,1,P16,1,0,0
112,2,0.91444,1,P16,1,0,0
113,2,0.75876,1,P16,0,0,0
114,2,0.74996,1,P16,0,0,0
115,2,0.6327,1,P16,0,0,0
116,2,0.83785,1,P16,1,0,0
117,2,0.60258,1,P16,0,0,0
118,2,0.61936,1,P16,0,0,0
119,2,0.71014,1,P16,1,0,0
120,2,1.0291,1,P16,1,0,0
121,2,0.81195,1,P16,0,0,0
122,2,1.0846,1,P16,1,0,0
123,2,0.74793,1,P16,0,0,0
124,2,0.79653,1,P16,0,0,0
125,2,1.3655,1,P16,1,0,0
126,2,1.1069,1,P16,0,0,0
127,2,0.80773,1,P16,0,0,0
128,2,1.4641,1,P16,1,0,0
1,1,0.71304,1,P17,1,0,1
2,1,0.53867,1,P17,0,0,0
3,1,0.94366,1,P17,1,0,0
4,1,0.60219,1,P17,1,0,0
5,1,0.68102,1,P17,0,0,0
6,1,0.55204,1,P17,0,0,0
7,1,1.0166,1,P17,1,0,0
8,1,0.61228,1,P17,0,0,0
9,1,0.5671,1,P17,0,0,0
10,1,0.74358,1,P17,0,0,0
11,1,0.53265,1,P17,1,0,0
12,1,0.6316,1,P17,0,0,0
13,1,0.50523,1,P17,0,0,0
14,1,0.59829,1,P17,1,0,0
15,1,0.74832,1,P17,1,0,0
16,1,0.62214,1,P17,0,0,0
17,1,0.47966,1,P17,0,0,0
18,1,0.61832,1,P17,1,0,0
19,1,0.54314,1,P17,0,0,0
20,1,0.57557,1,P17,1,0,0
21,1,0.41146,1,P17,0,0,0
22,1,0.58897,1,P17,0,0,0
23,1,0.624,1,P17,1,0,0
24,1,0.62862,1,P17,1,0,0
25,1,0.46929,1,P17,0,0,0
26,1,0.51765,1,P17,0,0,0
27,1,0.57617,1,P17,1,0,0
28,1,0.75516,1,P17,1,0,0
29,1,0.69827,1,P17,1,0,0
30,1,0.4703,1,P17,0,0,0
31,1,0.5885,1,P17,1,0,0
32,1,0.55921,1,P17,1,0,0
33,2,0.83711,1,P17,0,0,1
34,2,1.1065,1,P17,1,0,0
35,2,0.49345,1,P17,1,0,0
36,2,0.52595,1,P17,0,0,0
37,2,0.63695,1,P17,0,0,0
38,2,1.0272,0,P17,1,0,0
39,2,0.77613,1,P17,1,0,0
40,2,0.67155,1,P17,1,0,0
41,2,0.54526,1,P17,0,0,0
42,2,0.89166,1,P17,1,0,0
43,2,0.98857,1,P17,1,0,0
44,2,0.574,1,P17,0,0,0
45,2,0.61032,1,P17,0,0,0
46,2,0.58595,1,P17,0,0,0
47,2,0.99662,1,P17,1,0,0
48,2,0.69313,1,P17,0,0,0
49,2,0.57222,1,P17,0,0,0
50,2,0.77056,1,P17,1,0,0
51,2,0.91751,1,P17,1,0,0
57,3,0.8211,1,P17,0,0,1
58,3,0.65937,1,P17,1,0,0
59,3,0.67747,1,P17,1,0,0
60,3,0.80274,1,P17,1,0,0
61,3,0.53542,1,P17,0,0,0
62,3,0.70597,1,P17,1,0,0
63,3,0.65253,1,P17,0,0,0
64,3,0.48858,1,P17,0,0,0
65,3,0.50051,1,P17,0,0,0
66,3,0.58097,1,P17,1,0,0
67,3,0.75388,1,P17,1,0,0
68,3,0.9375,1,P17,1,0,0
69,3,0.59832,1,P17,0,0,0
70,3,0.62529,1,P17,0,0,0
71,3,0.76062,1,P17,1,0,0
72,3,0.54147,1,P17,0,0,0
73,3,0.49848,1,P17,0,0,0
74,3,0.75041,1,P17,1,0,0
75,3,0.56233,1,P17,1,0,0
76,3,0.56602,1,P17,1,0,0
77,3,0.48899,1,P17,0,0,0
78,3,0.52837,1,P17,1,0,0
79,3,1.0085,1,P17,1,0,0
80,3,0.88755,1,P17,1,0,0
81,3,0.46834,1,P17,0,0,0
82,3,0.45238,1,P17,0,0,0
83,3,0.51922,1,P17,0,0,0
84,3,0.57457,1,P17,1,0,0
85,3,0.58941,1,P17,1,0,0
86,3,1.2096,1,P17,1,0,0
87,3,0.66867,1,P17,0,0,0
88,3,0.78089,1,P17,1,0,0
89,4,1.4274,1,P17,1,0,1
90,4,0.52256,1,P17,0,0,0
91,4,0.50538,1,P17,0,0,0
92,4,0.77396,1,P17,1,0,0
93,4,0.40859,1,P17,0,0,0
94,4,0.66954,1,P17,1,0,0
95,4,0.43683,1,P17,1,0,0
96,4,0.62367,1,P17,1,0,0
97,4,0.61705,1,P17,0,0,0
98,4,0.70457,1,P17,0,0,0
99,4,0.56524,1,P17,0,0,0
100,4,0.79997,1,P17,1,0,0
101,4,0.59362,1,P17,1,0,0
102,4,0.44655,0,P17,0,0,0
103,4,0.5878,1,P17,0,0,0
104,4,0.55183,1,P17,0,0,0
105,4,0.70068,1,P17,1,0,0
106,4,0.85671,1,P17,1,0,0
107,4,0.44653,1,P17,0,0,0
108,4,0.54492,1,P17,0,0,0
109,4,0.46345,1,P17,1,0,0
110,4,0.62066,1,P17,0,0,0
111,4,0.48411,1,P17,0,0,0
112,4,0.63535,1,P17,1,0,0
113,4,0.52819,1,P17,0,0,0
114,4,0.45947,1,P17,0,0,0
115,4,0.62626,1,P17,0,0,0
116,4,0.72839,1,P17,1,0,0
117,4,0.45794,1,P17,0,0,0
118,4,0.50324,1,P17,1,0,0
119,4,0.85815,1,P17,1,0,0
120,4,0.49619,1,P17,0,0,0
121,5,0.56625,1,P17,1,0,1
122,5,0.50963,1,P17,0,0,0
123,5,0.74094,1,P17,1,0,0
124,5,0.7646,1,P17,1,0,0
125,5,0.58726,1,P17,0,0,0
126,5,0.45618,1,P17,0,0,0
127,5,0.7093,1,P17,1,0,0
128,5,0.48019,1,P17,0,0,0
129,5,0.51484,1,P17,0,0,0
130,5,0.54735,1,P17,0,0,0
131,5,0.68834,1,P17,1,0,0
132,5,0.46742,1,P17,0,0,0
133,5,0.43708,1,P17,0,0,0
134,5,0.54606,1,P17,1,0,0
135,5,0.72839,1,P17,1,0,0
136,5,0.56982,1,P17,0,0,0
137,5,0.4596,1,P17,0,0,0
138,5,0.51797,1,P17,1,0,0
139,5,0.52298,1,P17,0,0,0
140,5,0.53962,1,P17,1,0,0
141,5,0.5993,1,P17,0,0,0
142,5,0.55278,1,P17,0,0,0
143,5,0.57182,1,P17,1,0,0
144,5,0.4646,1,P17,1,0,0
145,5,0.48113,1,P17,0,0,0
146,5,0.51361,1,P17,0,0,0
147,5,0.587,1,P17,1,0,0
148,5,0.54569,1,P17,1,0,0
149,5,0.68439,1,P17,1,0,0
150,5,0.45935,1,P17,0,0,0
151,5,0.77223,1,P17,1,0,0
152,5,0.44285,1,P17,1,0,0
5,1,1.2784,0,P18,1,0,1
8,1,1.1294,1,P18,0,0,0
11,1,1.4848,1,P18,1,0,0
12,1,1.6316,0,P18,1,0,0
16,1,1.6557,0,P18,1,0,0
18,1,1.4465,1,P18,1,0,0
19,1,1.6126,1,P18,0,0,0
23,2,1.4772,1,P18,1,0,1
24,2,1.2272,1,P18,0,0,0
25,2,1.4561,1,P18,0,0,0
26,2,1.3661,1,P18,1,0,0
27,2,1.7448,1,P18,1,0,0
28,2,1.614,0,P18,0,0,0
32,2,1.3665,1,P18,0,0,0
33,2,1.7074,1,P18,1,0,0
35,2,1.3612,1,P18,0,0,0
36,2,1.5478,1,P18,1,0,0
37,2,1.1105,1,P18,0,0,0
38,2,1.6676,0,P18,1,0,0
40,2,1.3017,1,P18,0,0,0
41,2,1.5578,1,P18,1,0,0
42,2,1.3575,1,P18,1,0,0
43,2,1.3737,1,P18,0,0,0
44,2,1.2738,1,P18,1,0,0
45,2,1.5325,1,P18,1,0,0
46,2,1.6507,1,P18,1,0,0
47,2,1.4763,1,P18,0,0,0
48,2,1.2892,1,P18,1,0,0
49,2,1.1846,1,P18,1,0,0
50,2,1.08,1,P18,0,0,0
51,2,1.0176,1,P18,0,0,0
52,2,1.1951,1,P18,0,0,0
53,2,1.4381,1,P18,1,0,0
54,2,1.5633,0,P18,1,0,0
55,2,1.182,1,P18,1,0,0
56,2,1.4865,1,P18,0,0,0
57,2,1.2263,1,P18,0,0,0
58,2,1.3867,1,P18,1,0,0
59,2,1.2649,0,P18,1,0,0
60,2,1.4267,1,P18,0,0,0
61,2,1.1549,1,P18,0,0,0
62,2,1.3441,1,P18,1,0,0
63,2,1.1972,1,P18,1,0,0
64,2,1.474,1,P18,0,0,0
65,2,1.0859,1,P18,0,0,0
66,2,0.9686,1,P18,0,0,0
67,2,1.344,1,P18,1,0,0
69,2,1.474,1,P18,1,0,0
70,2,0.96238,1,P18,0,0,0
71,2,1.3059,1,P18,0,0,0
72,2,1.2741,1,P18,0,0,0
74,2,1.2511,1,P18,0,0,0
75,2,1.3602,1,P18,0,0,0
76,2,0.99384,1,P18,0,0,0
77,2,1.2688,1,P18,1,0,0
78,2,1.0772,1,P18,0,0,0
79,2,0.86375,1,P18,0,0,0
80,2,1.6265,0,P18,1,0,0
81,2,1.6691,1,P18,1,0,0
82,2,1.6124,1,P18,1,0,0
83,2,1.0278,1,P18,0,0,0
84,2,1.1473,1,P18,0,0,0
87,3,1.6314,1,P18,0,0,1
88,3,1.2798,1,P18,0,0,0
89,3,1.1272,1,P18,1,0,0
90,3,1.3311,1,P18,1,0,0
91,3,0.8804,1,P18,0,0,0
92,3,1.2237,1,P18,1,0,0
93,3,1.0537,1,P18,0,0,0
94,3,0.90113,1,P18,0,0,0
95,3,0.92202,0,P18,0,0,0
97,3,1.5404,1,P18,1,0,0
98,3,1.5259,1,P18,1,0,0
99,3,1.0199,1,P18,0,0,0
100,3,0.95881,1,P18,0,0,0
